Duration,Finished,RecordedDate,ResponseId,Age,Gender,item,TF,TF_RT,Nice,Nice_RT,trial,condition,Answer,Question,correct
517,TRUE,5/17/19 8:51,R_2vkROjR461UeBcK,31,Female,1,TRUE,2.487,6,1.816,1,cooperation,TRUE,"While Sally is away, she will think that her ball is in the box.",TRUE
615,TRUE,5/17/19 8:52,R_1r6MMWV7DfFqxpd,42,Male,1,FALSE,5.074,3,1.135,28,neutral,TRUE,"While Sally is away, she will think that her ball is in the box.",FALSE
649,TRUE,5/17/19 8:53,R_25T8irozLCiLVh0,37,Female,1,TRUE,1.64,4,3.316,2,neutral,TRUE,"While Sally is away, she will think that her ball is in the box.",TRUE
802,TRUE,5/17/19 8:55,R_25zlzmqXGkuMoAy,37,Female,1,TRUE,3.358,2,1.921,1,competition,TRUE,"While Sally is away, she will think that her ball is in the box.",TRUE
824,TRUE,5/17/19 8:56,R_3lJuzEN9AReQ5wu,32,Male,1,FALSE,2.055,4,0.595,27,neutral,TRUE,"While Sally is away, she will think that her ball is in the box.",FALSE
823,TRUE,5/17/19 8:56,R_1OpEbMtZfF51Vcf,36,Male,1,TRUE,0.799,5,0,25,cooperation,TRUE,"While Sally is away, she will think that her ball is in the box.",TRUE
816,TRUE,5/17/19 8:56,R_3R9Nfp2ZRQx5m2K,49,Male,1,TRUE,4.922,4,1.205,12,neutral,TRUE,"While Sally is away, she will think that her ball is in the box.",TRUE
891,TRUE,5/17/19 8:57,R_3fjCpZoHRW1A2Ne,26,Female,1,TRUE,1.647,3,0,10,neutral,TRUE,"While Sally is away, she will think that her ball is in the box.",TRUE
888,TRUE,5/17/19 8:57,R_DwQFzpjRs6OWsVj,57,Male,1,TRUE,6.678,4,6.841,1,cooperation,TRUE,"While Sally is away, she will think that her ball is in the box.",TRUE
921,TRUE,5/17/19 8:58,R_3xGmIO9l4b0xjkB,45,Male,1,TRUE,2.791,2,2.297,18,competition,TRUE,"While Sally is away, she will think that her ball is in the box.",TRUE
555,TRUE,5/17/19 8:58,R_1i2GGu5vP49VOSx,33,Female,1,FALSE,0.618,4,1.249,5,neutral,TRUE,"While Sally is away, she will think that her ball is in the box.",FALSE
872,TRUE,5/17/19 8:58,R_3LZJmEfxFNA9QM1,24,Male,1,TRUE,0.903,2,0,10,neutral,TRUE,"While Sally is away, she will think that her ball is in the box.",TRUE
582,TRUE,5/17/19 8:58,R_6JVr2yclf78Ur7z,40,Male,1,TRUE,1.787,3,1.229,22,cooperation,TRUE,"While Sally is away, she will think that her ball is in the box.",TRUE
749,TRUE,5/17/19 8:59,R_2OUvCFq6IOByioY,65,Male,1,TRUE,1.473,3,0,31,competition,TRUE,"While Sally is away, she will think that her ball is in the box.",TRUE
890,TRUE,5/17/19 8:59,R_3OjBivwNVJgGCFm,60,Female,1,TRUE,15.075,1,2.363,6,competition,TRUE,"While Sally is away, she will think that her ball is in the box.",TRUE
960,TRUE,5/17/19 8:59,R_1dgchqMkrwtYRuw,25,Male,1,TRUE,6.3,4,0,1,neutral,TRUE,"While Sally is away, she will think that her ball is in the box.",TRUE
951,TRUE,5/17/19 9:00,R_SHwxBm7rrXS6UuJ,60,Female,1,TRUE,1.895,4,2.21,13,competition,TRUE,"While Sally is away, she will think that her ball is in the box.",TRUE
965,TRUE,5/17/19 9:00,R_1jdGOcwp6nTs8Cm,28,Male,1,TRUE,1.673,4,1.659,28,neutral,TRUE,"While Sally is away, she will think that her ball is in the box.",TRUE
1086,TRUE,5/17/19 9:00,R_3kdfn7V66RfiGJP,49,Male,1,TRUE,3.712,5,2.356,12,cooperation,TRUE,"While Sally is away, she will think that her ball is in the box.",TRUE
1096,TRUE,5/17/19 9:01,R_C8IZCVpfJk9pRex,46,Male,1,TRUE,3.48,3,5.982,5,neutral,TRUE,"While Sally is away, she will think that her ball is in the box.",TRUE
939,TRUE,5/17/19 9:01,R_2ylbMvSHnM4PuIq,31,Male,1,FALSE,1.388,5,1.913,28,neutral,TRUE,"While Sally is away, she will think that her ball is in the box.",FALSE
1234,TRUE,5/17/19 9:02,R_1pS4Yf6fKavO3cv,48,Male,1,TRUE,2.516,2,0.869,19,competition,TRUE,"While Sally is away, she will think that her ball is in the box.",TRUE
1265,TRUE,5/17/19 9:03,R_1oGTEKsFA05S3nG,63,Male,1,TRUE,2.236,5,0,29,cooperation,TRUE,"While Sally is away, she will think that her ball is in the box.",TRUE
931,TRUE,5/17/19 9:03,R_3nqkGhiEKj7lACI,37,Male,1,TRUE,2.37,4,0,21,neutral,TRUE,"While Sally is away, she will think that her ball is in the box.",TRUE
1183,TRUE,5/17/19 9:03,R_2bZdLlIE23PGHei,27,Male,1,TRUE,10.035,1,0.789,21,cooperation,TRUE,"While Sally is away, she will think that her ball is in the box.",TRUE
1307,TRUE,5/17/19 9:04,R_2pJG64saaKdTEdF,30,Male,1,TRUE,1.84,4,0,14,neutral,TRUE,"While Sally is away, she will think that her ball is in the box.",TRUE
1122,TRUE,5/17/19 9:04,R_Wj28Vrunc9JSU01,45,Male,1,TRUE,4.005,3,9.976,13,neutral,TRUE,"While Sally is away, she will think that her ball is in the box.",TRUE
910,TRUE,5/17/19 9:06,R_24jDzYSpw6orAoF,42,Male,1,FALSE,3.096,6,0,18,cooperation,TRUE,"While Sally is away, she will think that her ball is in the box.",FALSE
1421,TRUE,5/17/19 9:06,R_7WGQFotDexFeJ6V,29,Female,1,TRUE,2.968,1,2.698,11,competition,TRUE,"While Sally is away, she will think that her ball is in the box.",TRUE
525,TRUE,5/17/19 9:06,R_3hiuPltAaux0CPe,30,Male,1,FALSE,0.832,5,0,20,cooperation,TRUE,"While Sally is away, she will think that her ball is in the box.",FALSE
1495,TRUE,5/17/19 9:07,R_1H8EPfrxw1tw3uT,28,Male,1,TRUE,2.363,1,1.268,2,competition,TRUE,"While Sally is away, she will think that her ball is in the box.",TRUE
689,TRUE,5/17/19 9:10,R_3qIIkYISe34fYTW,30,Male,1,TRUE,0.267,6,0.78,12,cooperation,TRUE,"While Sally is away, she will think that her ball is in the box.",TRUE
979,TRUE,5/17/19 9:13,R_3Hk4VqEtJFuflJG,30,Male,1,TRUE,3.276,3,3.093,2,competition,TRUE,"While Sally is away, she will think that her ball is in the box.",TRUE
554,TRUE,5/17/19 9:13,R_3iwAo9G4BlbfxMT,36,Female,1,TRUE,1.492,3,1.039,11,competition,TRUE,"While Sally is away, she will think that her ball is in the box.",TRUE
1539,TRUE,5/17/19 9:13,R_uwZWXUzmEJ929yx,26,Male,1,TRUE,1.956,4,3.814,14,neutral,TRUE,"While Sally is away, she will think that her ball is in the box.",TRUE
1193,TRUE,5/17/19 9:14,R_yKrxbqBtaOqkkq5,31,Male,1,TRUE,2.247,4,2.006,6,neutral,TRUE,"While Sally is away, she will think that her ball is in the box.",TRUE
957,TRUE,5/17/19 9:14,R_1fgdqRVxewCWKBK,45,Male,1,TRUE,2.025,1,0.741,17,competition,TRUE,"While Sally is away, she will think that her ball is in the box.",TRUE
1624,TRUE,5/17/19 9:15,R_27qhgEOUWt1ih9T,52,Female,1,TRUE,1.63,1,0.801,13,neutral,TRUE,"While Sally is away, she will think that her ball is in the box.",TRUE
1607,TRUE,5/17/19 9:17,R_qJhne5qHTvnA7PX,35,Female,1,TRUE,15.598,7,0,9,competition,TRUE,"While Sally is away, she will think that her ball is in the box.",TRUE
721,TRUE,5/17/19 9:18,R_2xRveXWptVzNKax,38,Male,1,TRUE,2.942,3,0,30,neutral,TRUE,"While Sally is away, she will think that her ball is in the box.",TRUE
1547,TRUE,5/17/19 9:19,R_1poPVjQ9yIaHj1a,23,Male,1,TRUE,2.894,4,0.991,26,neutral,TRUE,"While Sally is away, she will think that her ball is in the box.",TRUE
601,TRUE,5/17/19 9:20,R_1EX4utjEpf5jXSr,29,Male,1,TRUE,1.799,1,0.56,6,neutral,TRUE,"While Sally is away, she will think that her ball is in the box.",TRUE
1711,TRUE,5/17/19 9:21,R_ZLcGge8RHZkT1WF,46,Female,1,TRUE,2.364,6,0,14,cooperation,TRUE,"While Sally is away, she will think that her ball is in the box.",TRUE
2306,TRUE,5/17/19 9:21,R_pAvU65MY7pjtBRf,33,Male,1,TRUE,3.349,6,1.965,27,neutral,TRUE,"While Sally is away, she will think that her ball is in the box.",TRUE
715,TRUE,5/17/19 9:22,R_2QFlghnGSCTBnW5,32,Male,1,TRUE,1.627,3,0,11,neutral,TRUE,"While Sally is away, she will think that her ball is in the box.",TRUE
636,TRUE,5/17/19 9:22,R_2YLESYn9rXIXboZ,33,Female,1,FALSE,0,NA,0,1,cooperation,TRUE,"While Sally is away, she will think that her ball is in the box.",FALSE
1324,TRUE,5/17/19 9:23,R_2w6T9qpjVHCU9zO,42,Male,1,TRUE,13.213,3,0.66,25,competition,TRUE,"While Sally is away, she will think that her ball is in the box.",TRUE
482,TRUE,5/17/19 9:24,R_1jHOXEBJiSjTPnk,32,Male,1,TRUE,1.285,7,0,15,cooperation,TRUE,"While Sally is away, she will think that her ball is in the box.",TRUE
2548,TRUE,5/17/19 9:24,R_xim6y3PB8NIjgQ1,28,Male,1,TRUE,1.694,5,1.753,20,competition,TRUE,"While Sally is away, she will think that her ball is in the box.",TRUE
2013,TRUE,5/17/19 9:25,R_10Cqoo6FWpNqZKQ,28,Female,1,FALSE,1.101,2,0,19,neutral,TRUE,"While Sally is away, she will think that her ball is in the box.",FALSE
816,TRUE,5/17/19 9:26,R_RrTB0INEzTxvF7j,29,Female,1,TRUE,3.977,5,5.405,1,competition,TRUE,"While Sally is away, she will think that her ball is in the box.",TRUE
614,TRUE,5/17/19 9:26,R_3qOlYFD2TjwT7Eh,24,Male,1,TRUE,0.565,3,0,25,competition,TRUE,"While Sally is away, she will think that her ball is in the box.",TRUE
946,TRUE,5/17/19 9:27,R_1nSYlT2gcb4N3Wd,26,Female,1,TRUE,0.712,7,0.468,6,cooperation,TRUE,"While Sally is away, she will think that her ball is in the box.",TRUE
1288,TRUE,5/17/19 9:27,R_2Ybu5kDQPPJglFf,51,Male,1,FALSE,1.119,5,1.408,19,competition,TRUE,"While Sally is away, she will think that her ball is in the box.",FALSE
1145,TRUE,5/17/19 9:29,R_1IbCKbaB949UZys,29,Male,1,FALSE,1.88,5,0.396,12,cooperation,TRUE,"While Sally is away, she will think that her ball is in the box.",FALSE
652,TRUE,5/17/19 9:30,R_1l9LDHJGUsrvvB4,33,Male,1,TRUE,0.476,4,0.984,8,competition,TRUE,"While Sally is away, she will think that her ball is in the box.",TRUE
698,TRUE,5/17/19 9:30,R_1pWZFZXQRwwCFLB,29,Female,1,FALSE,0,6,4.916,18,competition,TRUE,"While Sally is away, she will think that her ball is in the box.",FALSE
1231,TRUE,5/17/19 9:32,R_3PT40D7GaVX0Xec,34,Female,1,TRUE,1.053,2,1.037,23,competition,TRUE,"While Sally is away, she will think that her ball is in the box.",TRUE
1370,TRUE,5/17/19 9:32,R_Y3nV6ylcEp2qNuF,29,Female,1,TRUE,1.555,3,0,19,competition,TRUE,"While Sally is away, she will think that her ball is in the box.",TRUE
1971,TRUE,5/17/19 9:32,R_1dH0W256QCwYG0H,28,Male,1,FALSE,2.711,4,0,20,neutral,TRUE,"While Sally is away, she will think that her ball is in the box.",FALSE
481,TRUE,5/17/19 9:32,R_2TZrkHVqXMzP6e4,30,Male,1,TRUE,0.364,3,0.217,13,cooperation,TRUE,"While Sally is away, she will think that her ball is in the box.",TRUE
743,TRUE,5/17/19 9:33,R_3PoGk1pG4cOmmab,40,Female,1,FALSE,55.582,3,0.184,17,neutral,TRUE,"While Sally is away, she will think that her ball is in the box.",FALSE
501,TRUE,5/17/19 9:33,R_3jVBxyvhCUzwIow,23,Male,1,FALSE,1.474,7,0.24,30,cooperation,TRUE,"While Sally is away, she will think that her ball is in the box.",FALSE
1042,TRUE,5/17/19 9:34,R_1eJliyhIwosYnom,25,Male,1,FALSE,0.373,3,0,27,competition,TRUE,"While Sally is away, she will think that her ball is in the box.",FALSE
2934,TRUE,5/17/19 9:34,R_1NypHBPXNvJqSD0,28,Male,1,FALSE,4.723,3,1.232,7,neutral,TRUE,"While Sally is away, she will think that her ball is in the box.",FALSE
671,TRUE,5/17/19 9:37,R_799RAZOc9qEvsqt,29,Male,1,TRUE,6.86,4,0.856,11,neutral,TRUE,"While Sally is away, she will think that her ball is in the box.",TRUE
2612,TRUE,5/17/19 9:40,R_3aU3FqtlIpBbIhX,28,Male,1,FALSE,6.302,5,0,16,neutral,TRUE,"While Sally is away, she will think that her ball is in the box.",FALSE
3516,TRUE,5/17/19 9:41,R_2ATp8rSYhHaj7zE,28,Male,1,TRUE,0.5,5,0,31,cooperation,TRUE,"While Sally is away, she will think that her ball is in the box.",TRUE
716,TRUE,5/17/19 9:42,R_33a0MDUdSG8RINl,28,Female,1,TRUE,1.126,4,0,24,cooperation,TRUE,"While Sally is away, she will think that her ball is in the box.",TRUE
474,TRUE,5/17/19 9:44,R_1SboHeKfgnz7fr3,29,Female,1,TRUE,0.622,3,1.421,10,competition,TRUE,"While Sally is away, she will think that her ball is in the box.",TRUE
1006,TRUE,5/17/19 9:50,R_2dBmN7j0yqFAPj4,41,Male,1,TRUE,3.23,3,1.175,10,competition,TRUE,"While Sally is away, she will think that her ball is in the box.",TRUE
2542,TRUE,5/17/19 9:54,R_3p3HtGxosn7DkWj,31,Female,1,TRUE,5.682,3,0,3,competition,TRUE,"While Sally is away, she will think that her ball is in the box.",TRUE
694,TRUE,5/17/19 9:56,R_3e7X1qsBGSFtc0z,25,Male,1,TRUE,4.128,4,3.602,1,competition,TRUE,"While Sally is away, she will think that her ball is in the box.",TRUE
538,TRUE,5/17/19 9:56,R_3hFohEPRqcobQLL,39,Male,1,TRUE,1.634,3,0.193,24,neutral,TRUE,"While Sally is away, she will think that her ball is in the box.",TRUE
927,TRUE,5/17/19 10:00,R_ANHgtZ5IMn3pASR,51,Male,1,TRUE,2.305,5,2.98,6,cooperation,TRUE,"While Sally is away, she will think that her ball is in the box.",TRUE
959,TRUE,5/17/19 10:02,R_3gNQtn49HYlLPPG,50,Male,1,TRUE,2.923,3,2.949,4,neutral,TRUE,"While Sally is away, she will think that her ball is in the box.",TRUE
1177,TRUE,5/17/19 10:02,R_VR4roOIDYwkmFzP,29,Male,1,TRUE,3.086,2,0,29,competition,TRUE,"While Sally is away, she will think that her ball is in the box.",TRUE
1149,TRUE,5/17/19 10:04,R_25BeFzDdAJzcqDZ,29,Female,1,TRUE,0.695,6,0,20,cooperation,TRUE,"While Sally is away, she will think that her ball is in the box.",TRUE
969,TRUE,5/17/19 10:08,R_2th5HiS5s3Ax1db,41,Female,1,TRUE,17.07,7,0,24,competition,TRUE,"While Sally is away, she will think that her ball is in the box.",TRUE
654,TRUE,5/17/19 10:10,R_8wsRy97E0N4aXvz,54,Female,1,FALSE,2.054,4,1.049,8,competition,TRUE,"While Sally is away, she will think that her ball is in the box.",FALSE
983,TRUE,5/17/19 10:10,R_2vcrydYaKqnbUVk,43,Female,1,TRUE,3.68,7,2.227,2,cooperation,TRUE,"While Sally is away, she will think that her ball is in the box.",TRUE
697,TRUE,5/17/19 10:12,R_2TmFUEtzKVbGMJI,32,Male,1,TRUE,2.419,1,1.211,5,competition,TRUE,"While Sally is away, she will think that her ball is in the box.",TRUE
691,TRUE,5/17/19 10:13,R_3NE5qlSZR4HJk6w,38,Male,1,TRUE,1.446,7,0,27,cooperation,TRUE,"While Sally is away, she will think that her ball is in the box.",TRUE
925,TRUE,5/17/19 10:14,R_3iQpnARiFuuKZgJ,36,Male,1,TRUE,4.012,3,2.251,1,neutral,TRUE,"While Sally is away, she will think that her ball is in the box.",TRUE
843,TRUE,5/17/19 10:15,R_2ZQvRIsPok6g53G,26,Male,1,TRUE,3.221,6,0,22,cooperation,TRUE,"While Sally is away, she will think that her ball is in the box.",TRUE
642,TRUE,5/17/19 10:15,R_1dmFsjzSn6uUgoA,33,Female,1,TRUE,1.26,3,0,9,competition,TRUE,"While Sally is away, she will think that her ball is in the box.",TRUE
1170,TRUE,5/17/19 10:15,R_25sYL5Hw6t1obag,30,Male,1,TRUE,1.08,4,0.438,8,competition,TRUE,"While Sally is away, she will think that her ball is in the box.",TRUE
1663,TRUE,5/17/19 10:18,R_2uwHqFqm0kGjDj9,37,Female,1,TRUE,1.435,3,0.348,22,competition,TRUE,"While Sally is away, she will think that her ball is in the box.",TRUE
1626,TRUE,5/17/19 10:25,R_296cWYz9Rsj5fJz,39,Male,1,TRUE,2.274,4,0,15,competition,TRUE,"While Sally is away, she will think that her ball is in the box.",TRUE
834,TRUE,5/17/19 10:36,R_4G74CmUNmf3f3TH,40,Female,1,TRUE,2.684,2,1.046,16,competition,TRUE,"While Sally is away, she will think that her ball is in the box.",TRUE
1791,TRUE,5/17/19 10:37,R_1rGFsBopxeiVpuP,59,Female,1,TRUE,12.128,4,2.305,15,neutral,TRUE,"While Sally is away, she will think that her ball is in the box.",TRUE
956,TRUE,5/17/19 10:47,R_10DEoCRvVJVfnmG,36,Male,1,FALSE,5.43,4,1.712,27,neutral,TRUE,"While Sally is away, she will think that her ball is in the box.",FALSE
1632,TRUE,5/17/19 11:01,R_3CPjgZ22Bx4XNwm,37,Male,1,TRUE,3.708,6,1.786,26,cooperation,TRUE,"While Sally is away, she will think that her ball is in the box.",TRUE
2005,TRUE,5/17/19 11:21,R_2aLEy1YwbU47kEF,66,Male,1,TRUE,9.762,6,5.656,1,competition,TRUE,"While Sally is away, she will think that her ball is in the box.",TRUE
517,TRUE,5/17/19 8:51,R_2vkROjR461UeBcK,31,Female,2,TRUE,1.975,5,2.028,6,cooperation,TRUE,"While Lucy is in the attic, she will think that her keep pile is still on her bed.",TRUE
615,TRUE,5/17/19 8:52,R_1r6MMWV7DfFqxpd,42,Male,2,TRUE,1.996,4,1.001,15,neutral,TRUE,"While Lucy is in the attic, she will think that her keep pile is still on her bed.",TRUE
649,TRUE,5/17/19 8:53,R_25T8irozLCiLVh0,37,Female,2,TRUE,2.203,5,1.363,12,cooperation,TRUE,"While Lucy is in the attic, she will think that her keep pile is still on her bed.",TRUE
802,TRUE,5/17/19 8:55,R_25zlzmqXGkuMoAy,37,Female,2,TRUE,2.046,4,0,7,neutral,TRUE,"While Lucy is in the attic, she will think that her keep pile is still on her bed.",TRUE
824,TRUE,5/17/19 8:56,R_3lJuzEN9AReQ5wu,32,Male,2,TRUE,2.896,4,2.048,20,neutral,TRUE,"While Lucy is in the attic, she will think that her keep pile is still on her bed.",TRUE
823,TRUE,5/17/19 8:56,R_1OpEbMtZfF51Vcf,36,Male,2,TRUE,3.383,2,0,2,neutral,TRUE,"While Lucy is in the attic, she will think that her keep pile is still on her bed.",TRUE
816,TRUE,5/17/19 8:56,R_3R9Nfp2ZRQx5m2K,49,Male,2,TRUE,5.296,4,3.039,1,competition,TRUE,"While Lucy is in the attic, she will think that her keep pile is still on her bed.",TRUE
891,TRUE,5/17/19 8:57,R_3fjCpZoHRW1A2Ne,26,Female,2,TRUE,1.492,1,0,23,competition,TRUE,"While Lucy is in the attic, she will think that her keep pile is still on her bed.",TRUE
888,TRUE,5/17/19 8:57,R_DwQFzpjRs6OWsVj,57,Male,2,TRUE,3.763,3,3.965,17,neutral,TRUE,"While Lucy is in the attic, she will think that her keep pile is still on her bed.",TRUE
921,TRUE,5/17/19 8:58,R_3xGmIO9l4b0xjkB,45,Male,2,TRUE,4.615,4,1.468,29,cooperation,TRUE,"While Lucy is in the attic, she will think that her keep pile is still on her bed.",TRUE
555,TRUE,5/17/19 8:58,R_1i2GGu5vP49VOSx,33,Female,2,TRUE,1.766,3,0.448,21,neutral,TRUE,"While Lucy is in the attic, she will think that her keep pile is still on her bed.",TRUE
872,TRUE,5/17/19 8:58,R_3LZJmEfxFNA9QM1,24,Male,2,TRUE,0.865,3,0,26,cooperation,TRUE,"While Lucy is in the attic, she will think that her keep pile is still on her bed.",TRUE
582,TRUE,5/17/19 8:58,R_6JVr2yclf78Ur7z,40,Male,2,TRUE,2.34,2,0.803,8,competition,TRUE,"While Lucy is in the attic, she will think that her keep pile is still on her bed.",TRUE
749,TRUE,5/17/19 8:59,R_2OUvCFq6IOByioY,65,Male,2,TRUE,2.565,7,0,11,neutral,TRUE,"While Lucy is in the attic, she will think that her keep pile is still on her bed.",TRUE
890,TRUE,5/17/19 8:59,R_3OjBivwNVJgGCFm,60,Female,2,TRUE,4.62,5,1.837,19,cooperation,TRUE,"While Lucy is in the attic, she will think that her keep pile is still on her bed.",TRUE
960,TRUE,5/17/19 8:59,R_1dgchqMkrwtYRuw,25,Male,2,TRUE,17.242,4,2.26,8,neutral,TRUE,"While Lucy is in the attic, she will think that her keep pile is still on her bed.",TRUE
951,TRUE,5/17/19 9:00,R_SHwxBm7rrXS6UuJ,60,Female,2,TRUE,3.01,4,1.415,17,neutral,TRUE,"While Lucy is in the attic, she will think that her keep pile is still on her bed.",TRUE
965,TRUE,5/17/19 9:00,R_1jdGOcwp6nTs8Cm,28,Male,2,TRUE,5.734,4,1.644,29,neutral,TRUE,"While Lucy is in the attic, she will think that her keep pile is still on her bed.",TRUE
1086,TRUE,5/17/19 9:00,R_3kdfn7V66RfiGJP,49,Male,2,TRUE,5.497,3,0.883,20,competition,TRUE,"While Lucy is in the attic, she will think that her keep pile is still on her bed.",TRUE
1096,TRUE,5/17/19 9:01,R_C8IZCVpfJk9pRex,46,Male,2,TRUE,1.808,4,2.554,22,competition,TRUE,"While Lucy is in the attic, she will think that her keep pile is still on her bed.",TRUE
939,TRUE,5/17/19 9:01,R_2ylbMvSHnM4PuIq,31,Male,2,TRUE,1.39,2,0.89,7,competition,TRUE,"While Lucy is in the attic, she will think that her keep pile is still on her bed.",TRUE
1234,TRUE,5/17/19 9:02,R_1pS4Yf6fKavO3cv,48,Male,2,TRUE,2.913,4,1.454,3,cooperation,TRUE,"While Lucy is in the attic, she will think that her keep pile is still on her bed.",TRUE
1265,TRUE,5/17/19 9:03,R_1oGTEKsFA05S3nG,63,Male,2,TRUE,4.304,5,2.439,17,cooperation,TRUE,"While Lucy is in the attic, she will think that her keep pile is still on her bed.",TRUE
931,TRUE,5/17/19 9:03,R_3nqkGhiEKj7lACI,37,Male,2,TRUE,1.742,2,0.362,23,competition,TRUE,"While Lucy is in the attic, she will think that her keep pile is still on her bed.",TRUE
1183,TRUE,5/17/19 9:03,R_2bZdLlIE23PGHei,27,Male,2,TRUE,9.906,1,0.421,31,competition,TRUE,"While Lucy is in the attic, she will think that her keep pile is still on her bed.",TRUE
1307,TRUE,5/17/19 9:04,R_2pJG64saaKdTEdF,30,Male,2,TRUE,2.904,5,0,29,cooperation,TRUE,"While Lucy is in the attic, she will think that her keep pile is still on her bed.",TRUE
1122,TRUE,5/17/19 9:04,R_Wj28Vrunc9JSU01,45,Male,2,TRUE,4.271,4,12.131,12,neutral,TRUE,"While Lucy is in the attic, she will think that her keep pile is still on her bed.",TRUE
910,TRUE,5/17/19 9:06,R_24jDzYSpw6orAoF,42,Male,2,TRUE,3.196,4,1.1,19,neutral,TRUE,"While Lucy is in the attic, she will think that her keep pile is still on her bed.",TRUE
1421,TRUE,5/17/19 9:06,R_7WGQFotDexFeJ6V,29,Female,2,TRUE,1.853,3,1.549,29,neutral,TRUE,"While Lucy is in the attic, she will think that her keep pile is still on her bed.",TRUE
525,TRUE,5/17/19 9:06,R_3hiuPltAaux0CPe,30,Male,2,TRUE,0.408,5,0,9,competition,TRUE,"While Lucy is in the attic, she will think that her keep pile is still on her bed.",TRUE
1495,TRUE,5/17/19 9:07,R_1H8EPfrxw1tw3uT,28,Male,2,TRUE,2.999,5,0.815,17,neutral,TRUE,"While Lucy is in the attic, she will think that her keep pile is still on her bed.",TRUE
689,TRUE,5/17/19 9:10,R_3qIIkYISe34fYTW,30,Male,2,FALSE,3.541,3,0,6,cooperation,TRUE,"While Lucy is in the attic, she will think that her keep pile is still on her bed.",FALSE
979,TRUE,5/17/19 9:13,R_3Hk4VqEtJFuflJG,30,Male,2,TRUE,2.741,1,0.543,31,competition,TRUE,"While Lucy is in the attic, she will think that her keep pile is still on her bed.",TRUE
554,TRUE,5/17/19 9:13,R_3iwAo9G4BlbfxMT,36,Female,2,TRUE,2.294,4,0.874,17,competition,TRUE,"While Lucy is in the attic, she will think that her keep pile is still on her bed.",TRUE
1539,TRUE,5/17/19 9:13,R_uwZWXUzmEJ929yx,26,Male,2,TRUE,4.542,4,0,12,competition,TRUE,"While Lucy is in the attic, she will think that her keep pile is still on her bed.",TRUE
1193,TRUE,5/17/19 9:14,R_yKrxbqBtaOqkkq5,31,Male,2,TRUE,3.07,6,1.029,9,neutral,TRUE,"While Lucy is in the attic, she will think that her keep pile is still on her bed.",TRUE
957,TRUE,5/17/19 9:14,R_1fgdqRVxewCWKBK,45,Male,2,TRUE,4.621,4,3.138,2,neutral,TRUE,"While Lucy is in the attic, she will think that her keep pile is still on her bed.",TRUE
1624,TRUE,5/17/19 9:15,R_27qhgEOUWt1ih9T,52,Female,2,TRUE,3.616,4,1.292,15,cooperation,TRUE,"While Lucy is in the attic, she will think that her keep pile is still on her bed.",TRUE
1607,TRUE,5/17/19 9:17,R_qJhne5qHTvnA7PX,35,Female,2,TRUE,3.07,6,1.249,25,competition,TRUE,"While Lucy is in the attic, she will think that her keep pile is still on her bed.",TRUE
721,TRUE,5/17/19 9:18,R_2xRveXWptVzNKax,38,Male,2,TRUE,2.435,5,0,24,cooperation,TRUE,"While Lucy is in the attic, she will think that her keep pile is still on her bed.",TRUE
1547,TRUE,5/17/19 9:19,R_1poPVjQ9yIaHj1a,23,Male,2,TRUE,2.989,1,0.656,27,competition,TRUE,"While Lucy is in the attic, she will think that her keep pile is still on her bed.",TRUE
601,TRUE,5/17/19 9:20,R_1EX4utjEpf5jXSr,29,Male,2,TRUE,0.646,4,0,9,cooperation,TRUE,"While Lucy is in the attic, she will think that her keep pile is still on her bed.",TRUE
1711,TRUE,5/17/19 9:21,R_ZLcGge8RHZkT1WF,46,Female,2,TRUE,8.466,4,3.079,11,competition,TRUE,"While Lucy is in the attic, she will think that her keep pile is still on her bed.",TRUE
2306,TRUE,5/17/19 9:21,R_pAvU65MY7pjtBRf,33,Male,2,TRUE,9.141,5,2.739,30,neutral,TRUE,"While Lucy is in the attic, she will think that her keep pile is still on her bed.",TRUE
715,TRUE,5/17/19 9:22,R_2QFlghnGSCTBnW5,32,Male,2,TRUE,2.823,2,0.519,31,competition,TRUE,"While Lucy is in the attic, she will think that her keep pile is still on her bed.",TRUE
636,TRUE,5/17/19 9:22,R_2YLESYn9rXIXboZ,33,Female,2,TRUE,2.382,5,0,2,competition,TRUE,"While Lucy is in the attic, she will think that her keep pile is still on her bed.",TRUE
1324,TRUE,5/17/19 9:23,R_2w6T9qpjVHCU9zO,42,Male,2,TRUE,16.835,4,1.194,27,competition,TRUE,"While Lucy is in the attic, she will think that her keep pile is still on her bed.",TRUE
482,TRUE,5/17/19 9:24,R_1jHOXEBJiSjTPnk,32,Male,2,TRUE,0.651,6,0.71,9,neutral,TRUE,"While Lucy is in the attic, she will think that her keep pile is still on her bed.",TRUE
2548,TRUE,5/17/19 9:24,R_xim6y3PB8NIjgQ1,28,Male,2,TRUE,1.953,5,0,5,cooperation,TRUE,"While Lucy is in the attic, she will think that her keep pile is still on her bed.",TRUE
2013,TRUE,5/17/19 9:25,R_10Cqoo6FWpNqZKQ,28,Female,2,TRUE,2.224,5,0,25,cooperation,TRUE,"While Lucy is in the attic, she will think that her keep pile is still on her bed.",TRUE
816,TRUE,5/17/19 9:26,R_RrTB0INEzTxvF7j,29,Female,2,TRUE,3.398,4,3.101,3,neutral,TRUE,"While Lucy is in the attic, she will think that her keep pile is still on her bed.",TRUE
614,TRUE,5/17/19 9:26,R_3qOlYFD2TjwT7Eh,24,Male,2,TRUE,0.813,4,0,18,cooperation,TRUE,"While Lucy is in the attic, she will think that her keep pile is still on her bed.",TRUE
946,TRUE,5/17/19 9:27,R_1nSYlT2gcb4N3Wd,26,Female,2,TRUE,2.417,1,0,3,competition,TRUE,"While Lucy is in the attic, she will think that her keep pile is still on her bed.",TRUE
1288,TRUE,5/17/19 9:27,R_2Ybu5kDQPPJglFf,51,Male,2,FALSE,14.505,5,19.243,28,cooperation,TRUE,"While Lucy is in the attic, she will think that her keep pile is still on her bed.",FALSE
1145,TRUE,5/17/19 9:29,R_1IbCKbaB949UZys,29,Male,2,TRUE,0.023,1,0.038,10,neutral,TRUE,"While Lucy is in the attic, she will think that her keep pile is still on her bed.",TRUE
652,TRUE,5/17/19 9:30,R_1l9LDHJGUsrvvB4,33,Male,2,TRUE,1.268,5,1.175,19,cooperation,TRUE,"While Lucy is in the attic, she will think that her keep pile is still on her bed.",TRUE
698,TRUE,5/17/19 9:30,R_1pWZFZXQRwwCFLB,29,Female,2,TRUE,0,6,0,16,neutral,TRUE,"While Lucy is in the attic, she will think that her keep pile is still on her bed.",TRUE
1231,TRUE,5/17/19 9:32,R_3PT40D7GaVX0Xec,34,Female,2,TRUE,2.571,4,1.469,3,neutral,TRUE,"While Lucy is in the attic, she will think that her keep pile is still on her bed.",TRUE
1370,TRUE,5/17/19 9:32,R_Y3nV6ylcEp2qNuF,29,Female,2,TRUE,3.21,5,1.395,2,neutral,TRUE,"While Lucy is in the attic, she will think that her keep pile is still on her bed.",TRUE
1971,TRUE,5/17/19 9:32,R_1dH0W256QCwYG0H,28,Male,2,TRUE,4.686,5,0,6,cooperation,TRUE,"While Lucy is in the attic, she will think that her keep pile is still on her bed.",TRUE
481,TRUE,5/17/19 9:32,R_2TZrkHVqXMzP6e4,30,Male,2,FALSE,0.223,3,0,5,cooperation,TRUE,"While Lucy is in the attic, she will think that her keep pile is still on her bed.",FALSE
743,TRUE,5/17/19 9:33,R_3PoGk1pG4cOmmab,40,Female,2,TRUE,0.562,4,0,24,neutral,TRUE,"While Lucy is in the attic, she will think that her keep pile is still on her bed.",TRUE
501,TRUE,5/17/19 9:33,R_3jVBxyvhCUzwIow,23,Male,2,TRUE,3.77,2,0.621,17,competition,TRUE,"While Lucy is in the attic, she will think that her keep pile is still on her bed.",TRUE
1042,TRUE,5/17/19 9:34,R_1eJliyhIwosYnom,25,Male,2,FALSE,0.186,6,0,28,cooperation,TRUE,"While Lucy is in the attic, she will think that her keep pile is still on her bed.",FALSE
2934,TRUE,5/17/19 9:34,R_1NypHBPXNvJqSD0,28,Male,2,TRUE,3.018,2,2.217,4,cooperation,TRUE,"While Lucy is in the attic, she will think that her keep pile is still on her bed.",TRUE
671,TRUE,5/17/19 9:37,R_799RAZOc9qEvsqt,29,Male,2,TRUE,1.962,3,0.644,24,neutral,TRUE,"While Lucy is in the attic, she will think that her keep pile is still on her bed.",TRUE
2612,TRUE,5/17/19 9:40,R_3aU3FqtlIpBbIhX,28,Male,2,TRUE,506.938,4,0,1,competition,TRUE,"While Lucy is in the attic, she will think that her keep pile is still on her bed.",TRUE
3516,TRUE,5/17/19 9:41,R_2ATp8rSYhHaj7zE,28,Male,2,TRUE,40.856,5,6.663,11,cooperation,TRUE,"While Lucy is in the attic, she will think that her keep pile is still on her bed.",TRUE
716,TRUE,5/17/19 9:42,R_33a0MDUdSG8RINl,28,Female,2,TRUE,1.179,4,0,29,cooperation,TRUE,"While Lucy is in the attic, she will think that her keep pile is still on her bed.",TRUE
474,TRUE,5/17/19 9:44,R_1SboHeKfgnz7fr3,29,Female,2,TRUE,1.196,5,2.391,4,cooperation,TRUE,"While Lucy is in the attic, she will think that her keep pile is still on her bed.",TRUE
1006,TRUE,5/17/19 9:50,R_2dBmN7j0yqFAPj4,41,Male,2,TRUE,3.094,5,2.097,5,cooperation,TRUE,"While Lucy is in the attic, she will think that her keep pile is still on her bed.",TRUE
2542,TRUE,5/17/19 9:54,R_3p3HtGxosn7DkWj,31,Female,2,TRUE,2.68,3,0,28,competition,TRUE,"While Lucy is in the attic, she will think that her keep pile is still on her bed.",TRUE
694,TRUE,5/17/19 9:56,R_3e7X1qsBGSFtc0z,25,Male,2,TRUE,2.89,1,0.622,10,competition,TRUE,"While Lucy is in the attic, she will think that her keep pile is still on her bed.",TRUE
538,TRUE,5/17/19 9:56,R_3hFohEPRqcobQLL,39,Male,2,TRUE,1.988,4,3.599,22,neutral,TRUE,"While Lucy is in the attic, she will think that her keep pile is still on her bed.",TRUE
927,TRUE,5/17/19 10:00,R_ANHgtZ5IMn3pASR,51,Male,2,TRUE,2.079,5,1.301,23,cooperation,TRUE,"While Lucy is in the attic, she will think that her keep pile is still on her bed.",TRUE
959,TRUE,5/17/19 10:02,R_3gNQtn49HYlLPPG,50,Male,2,TRUE,2.299,1,0,5,competition,TRUE,"While Lucy is in the attic, she will think that her keep pile is still on her bed.",TRUE
1177,TRUE,5/17/19 10:02,R_VR4roOIDYwkmFzP,29,Male,2,TRUE,73.343,5,0,3,neutral,TRUE,"While Lucy is in the attic, she will think that her keep pile is still on her bed.",TRUE
1149,TRUE,5/17/19 10:04,R_25BeFzDdAJzcqDZ,29,Female,2,TRUE,27.798,5,0,19,cooperation,TRUE,"While Lucy is in the attic, she will think that her keep pile is still on her bed.",TRUE
969,TRUE,5/17/19 10:08,R_2th5HiS5s3Ax1db,41,Female,2,TRUE,0,7,0,1,competition,TRUE,"While Lucy is in the attic, she will think that her keep pile is still on her bed.",TRUE
654,TRUE,5/17/19 10:10,R_8wsRy97E0N4aXvz,54,Female,2,TRUE,1.653,4,0,17,neutral,TRUE,"While Lucy is in the attic, she will think that her keep pile is still on her bed.",TRUE
983,TRUE,5/17/19 10:10,R_2vcrydYaKqnbUVk,43,Female,2,TRUE,3.9,4,1.873,25,neutral,TRUE,"While Lucy is in the attic, she will think that her keep pile is still on her bed.",TRUE
697,TRUE,5/17/19 10:12,R_2TmFUEtzKVbGMJI,32,Male,2,TRUE,2.025,1,0.698,19,competition,TRUE,"While Lucy is in the attic, she will think that her keep pile is still on her bed.",TRUE
691,TRUE,5/17/19 10:13,R_3NE5qlSZR4HJk6w,38,Male,2,TRUE,1.806,4,0.679,13,neutral,TRUE,"While Lucy is in the attic, she will think that her keep pile is still on her bed.",TRUE
925,TRUE,5/17/19 10:14,R_3iQpnARiFuuKZgJ,36,Male,2,TRUE,3.831,3,0,17,competition,TRUE,"While Lucy is in the attic, she will think that her keep pile is still on her bed.",TRUE
843,TRUE,5/17/19 10:15,R_2ZQvRIsPok6g53G,26,Male,2,TRUE,2.168,4,2.303,23,cooperation,TRUE,"While Lucy is in the attic, she will think that her keep pile is still on her bed.",TRUE
642,TRUE,5/17/19 10:15,R_1dmFsjzSn6uUgoA,33,Female,2,TRUE,1.572,2,1.741,13,neutral,TRUE,"While Lucy is in the attic, she will think that her keep pile is still on her bed.",TRUE
1170,TRUE,5/17/19 10:15,R_25sYL5Hw6t1obag,30,Male,2,TRUE,1.132,4,0.918,22,competition,TRUE,"While Lucy is in the attic, she will think that her keep pile is still on her bed.",TRUE
1663,TRUE,5/17/19 10:18,R_2uwHqFqm0kGjDj9,37,Female,2,TRUE,2.469,3,1.336,11,cooperation,TRUE,"While Lucy is in the attic, she will think that her keep pile is still on her bed.",TRUE
1626,TRUE,5/17/19 10:25,R_296cWYz9Rsj5fJz,39,Male,2,TRUE,2.574,4,0,30,cooperation,TRUE,"While Lucy is in the attic, she will think that her keep pile is still on her bed.",TRUE
834,TRUE,5/17/19 10:36,R_4G74CmUNmf3f3TH,40,Female,2,TRUE,2.069,4,1.007,20,neutral,TRUE,"While Lucy is in the attic, she will think that her keep pile is still on her bed.",TRUE
1791,TRUE,5/17/19 10:37,R_1rGFsBopxeiVpuP,59,Female,2,TRUE,4.543,4,1.098,31,neutral,TRUE,"While Lucy is in the attic, she will think that her keep pile is still on her bed.",TRUE
956,TRUE,5/17/19 10:47,R_10DEoCRvVJVfnmG,36,Male,2,TRUE,3.142,4,2.053,22,neutral,TRUE,"While Lucy is in the attic, she will think that her keep pile is still on her bed.",TRUE
1632,TRUE,5/17/19 11:01,R_3CPjgZ22Bx4XNwm,37,Male,2,TRUE,5.194,4,4.774,5,competition,TRUE,"While Lucy is in the attic, she will think that her keep pile is still on her bed.",TRUE
2005,TRUE,5/17/19 11:21,R_2aLEy1YwbU47kEF,66,Male,2,TRUE,9.575,2,2.518,19,neutral,TRUE,"While Lucy is in the attic, she will think that her keep pile is still on her bed.",TRUE
517,TRUE,5/17/19 8:51,R_2vkROjR461UeBcK,31,Female,3,FALSE,1.456,5,0.992,23,cooperation,FALSE,"When Roxanne wakes up, she will think the puzzle is completed.",TRUE
615,TRUE,5/17/19 8:52,R_1r6MMWV7DfFqxpd,42,Male,3,FALSE,2.017,2,4.37,16,competition,FALSE,"When Roxanne wakes up, she will think the puzzle is completed.",TRUE
649,TRUE,5/17/19 8:53,R_25T8irozLCiLVh0,37,Female,3,FALSE,1.969,5,1.197,10,cooperation,FALSE,"When Roxanne wakes up, she will think the puzzle is completed.",TRUE
802,TRUE,5/17/19 8:55,R_25zlzmqXGkuMoAy,37,Female,3,FALSE,2.114,1,0,18,competition,FALSE,"When Roxanne wakes up, she will think the puzzle is completed.",TRUE
824,TRUE,5/17/19 8:56,R_3lJuzEN9AReQ5wu,32,Male,3,FALSE,1.438,2,1.709,6,competition,FALSE,"When Roxanne wakes up, she will think the puzzle is completed.",TRUE
823,TRUE,5/17/19 8:56,R_1OpEbMtZfF51Vcf,36,Male,3,FALSE,0.368,5,0,18,competition,FALSE,"When Roxanne wakes up, she will think the puzzle is completed.",TRUE
816,TRUE,5/17/19 8:56,R_3R9Nfp2ZRQx5m2K,49,Male,3,FALSE,3.27,4,2.345,3,neutral,FALSE,"When Roxanne wakes up, she will think the puzzle is completed.",TRUE
891,TRUE,5/17/19 8:57,R_3fjCpZoHRW1A2Ne,26,Female,3,FALSE,1.264,1,1.646,26,competition,FALSE,"When Roxanne wakes up, she will think the puzzle is completed.",TRUE
888,TRUE,5/17/19 8:57,R_DwQFzpjRs6OWsVj,57,Male,3,FALSE,2.762,1,0,10,neutral,FALSE,"When Roxanne wakes up, she will think the puzzle is completed.",TRUE
921,TRUE,5/17/19 8:58,R_3xGmIO9l4b0xjkB,45,Male,3,FALSE,2.519,3,2.398,17,competition,FALSE,"When Roxanne wakes up, she will think the puzzle is completed.",TRUE
555,TRUE,5/17/19 8:58,R_1i2GGu5vP49VOSx,33,Female,3,FALSE,0.749,4,1.699,3,neutral,FALSE,"When Roxanne wakes up, she will think the puzzle is completed.",TRUE
872,TRUE,5/17/19 8:58,R_3LZJmEfxFNA9QM1,24,Male,3,FALSE,2.047,2,0.555,7,competition,FALSE,"When Roxanne wakes up, she will think the puzzle is completed.",TRUE
582,TRUE,5/17/19 8:58,R_6JVr2yclf78Ur7z,40,Male,3,FALSE,1.473,2,1.616,23,competition,FALSE,"When Roxanne wakes up, she will think the puzzle is completed.",TRUE
749,TRUE,5/17/19 8:59,R_2OUvCFq6IOByioY,65,Male,3,FALSE,2.039,7,2.691,19,neutral,FALSE,"When Roxanne wakes up, she will think the puzzle is completed.",TRUE
890,TRUE,5/17/19 8:59,R_3OjBivwNVJgGCFm,60,Female,3,FALSE,2.994,2,1.786,27,neutral,FALSE,"When Roxanne wakes up, she will think the puzzle is completed.",TRUE
960,TRUE,5/17/19 8:59,R_1dgchqMkrwtYRuw,25,Male,3,FALSE,1.916,7,1.099,18,cooperation,FALSE,"When Roxanne wakes up, she will think the puzzle is completed.",TRUE
951,TRUE,5/17/19 9:00,R_SHwxBm7rrXS6UuJ,60,Female,3,FALSE,3.86,5,3.06,6,neutral,FALSE,"When Roxanne wakes up, she will think the puzzle is completed.",TRUE
965,TRUE,5/17/19 9:00,R_1jdGOcwp6nTs8Cm,28,Male,3,FALSE,1.629,4,2.995,13,neutral,FALSE,"When Roxanne wakes up, she will think the puzzle is completed.",TRUE
1086,TRUE,5/17/19 9:00,R_3kdfn7V66RfiGJP,49,Male,3,FALSE,8.375,4,3.997,2,cooperation,FALSE,"When Roxanne wakes up, she will think the puzzle is completed.",TRUE
1096,TRUE,5/17/19 9:01,R_C8IZCVpfJk9pRex,46,Male,3,FALSE,1.586,1,0.862,30,competition,FALSE,"When Roxanne wakes up, she will think the puzzle is completed.",TRUE
939,TRUE,5/17/19 9:01,R_2ylbMvSHnM4PuIq,31,Male,3,FALSE,2.001,5,1.432,1,cooperation,FALSE,"When Roxanne wakes up, she will think the puzzle is completed.",TRUE
1234,TRUE,5/17/19 9:02,R_1pS4Yf6fKavO3cv,48,Male,3,FALSE,2.044,3,0,29,cooperation,FALSE,"When Roxanne wakes up, she will think the puzzle is completed.",TRUE
1265,TRUE,5/17/19 9:03,R_1oGTEKsFA05S3nG,63,Male,3,FALSE,2.6,4,4.815,26,cooperation,FALSE,"When Roxanne wakes up, she will think the puzzle is completed.",TRUE
931,TRUE,5/17/19 9:03,R_3nqkGhiEKj7lACI,37,Male,3,FALSE,3.638,3,0,22,neutral,FALSE,"When Roxanne wakes up, she will think the puzzle is completed.",TRUE
1183,TRUE,5/17/19 9:03,R_2bZdLlIE23PGHei,27,Male,3,FALSE,22.633,2,0,7,cooperation,FALSE,"When Roxanne wakes up, she will think the puzzle is completed.",TRUE
1307,TRUE,5/17/19 9:04,R_2pJG64saaKdTEdF,30,Male,3,FALSE,3.092,3,0,4,competition,FALSE,"When Roxanne wakes up, she will think the puzzle is completed.",TRUE
1122,TRUE,5/17/19 9:04,R_Wj28Vrunc9JSU01,45,Male,3,FALSE,2.113,5,4.72,14,cooperation,FALSE,"When Roxanne wakes up, she will think the puzzle is completed.",TRUE
910,TRUE,5/17/19 9:06,R_24jDzYSpw6orAoF,42,Male,3,FALSE,1.797,2,1.644,17,neutral,FALSE,"When Roxanne wakes up, she will think the puzzle is completed.",TRUE
1421,TRUE,5/17/19 9:06,R_7WGQFotDexFeJ6V,29,Female,3,FALSE,2.186,5,3.716,4,cooperation,FALSE,"When Roxanne wakes up, she will think the puzzle is completed.",TRUE
525,TRUE,5/17/19 9:06,R_3hiuPltAaux0CPe,30,Male,3,FALSE,0.419,2,0,25,competition,FALSE,"When Roxanne wakes up, she will think the puzzle is completed.",TRUE
1495,TRUE,5/17/19 9:07,R_1H8EPfrxw1tw3uT,28,Male,3,TRUE,1.045,7,0.288,7,neutral,FALSE,"When Roxanne wakes up, she will think the puzzle is completed.",FALSE
689,TRUE,5/17/19 9:10,R_3qIIkYISe34fYTW,30,Male,3,TRUE,0.772,6,0,31,competition,FALSE,"When Roxanne wakes up, she will think the puzzle is completed.",FALSE
979,TRUE,5/17/19 9:13,R_3Hk4VqEtJFuflJG,30,Male,3,FALSE,2.474,5,3.06,7,cooperation,FALSE,"When Roxanne wakes up, she will think the puzzle is completed.",TRUE
554,TRUE,5/17/19 9:13,R_3iwAo9G4BlbfxMT,36,Female,3,FALSE,1.89,4,0,14,neutral,FALSE,"When Roxanne wakes up, she will think the puzzle is completed.",TRUE
1539,TRUE,5/17/19 9:13,R_uwZWXUzmEJ929yx,26,Male,3,FALSE,2.396,7,0,10,neutral,FALSE,"When Roxanne wakes up, she will think the puzzle is completed.",TRUE
1193,TRUE,5/17/19 9:14,R_yKrxbqBtaOqkkq5,31,Male,3,FALSE,5.044,5,1.498,3,cooperation,FALSE,"When Roxanne wakes up, she will think the puzzle is completed.",TRUE
957,TRUE,5/17/19 9:14,R_1fgdqRVxewCWKBK,45,Male,3,FALSE,1.831,2,0.888,19,competition,FALSE,"When Roxanne wakes up, she will think the puzzle is completed.",TRUE
1624,TRUE,5/17/19 9:15,R_27qhgEOUWt1ih9T,52,Female,3,FALSE,0,4,1.517,28,cooperation,FALSE,"When Roxanne wakes up, she will think the puzzle is completed.",TRUE
1607,TRUE,5/17/19 9:17,R_qJhne5qHTvnA7PX,35,Female,3,TRUE,3.419,7,5.318,28,cooperation,FALSE,"When Roxanne wakes up, she will think the puzzle is completed.",FALSE
721,TRUE,5/17/19 9:18,R_2xRveXWptVzNKax,38,Male,3,FALSE,1.331,4,0,14,neutral,FALSE,"When Roxanne wakes up, she will think the puzzle is completed.",TRUE
1547,TRUE,5/17/19 9:19,R_1poPVjQ9yIaHj1a,23,Male,3,FALSE,2.145,5,1.662,9,cooperation,FALSE,"When Roxanne wakes up, she will think the puzzle is completed.",TRUE
601,TRUE,5/17/19 9:20,R_1EX4utjEpf5jXSr,29,Male,3,FALSE,3.542,1,0,18,competition,FALSE,"When Roxanne wakes up, she will think the puzzle is completed.",TRUE
1711,TRUE,5/17/19 9:21,R_ZLcGge8RHZkT1WF,46,Female,3,FALSE,3.228,2,0,9,competition,FALSE,"When Roxanne wakes up, she will think the puzzle is completed.",TRUE
2306,TRUE,5/17/19 9:21,R_pAvU65MY7pjtBRf,33,Male,3,FALSE,21.428,1,16.017,24,competition,FALSE,"When Roxanne wakes up, she will think the puzzle is completed.",TRUE
715,TRUE,5/17/19 9:22,R_2QFlghnGSCTBnW5,32,Male,3,FALSE,1.592,2,0.621,13,neutral,FALSE,"When Roxanne wakes up, she will think the puzzle is completed.",TRUE
636,TRUE,5/17/19 9:22,R_2YLESYn9rXIXboZ,33,Female,3,FALSE,1.587,6,0.593,26,cooperation,FALSE,"When Roxanne wakes up, she will think the puzzle is completed.",TRUE
1324,TRUE,5/17/19 9:23,R_2w6T9qpjVHCU9zO,42,Male,3,FALSE,31.021,7,3.154,30,cooperation,FALSE,"When Roxanne wakes up, she will think the puzzle is completed.",TRUE
482,TRUE,5/17/19 9:24,R_1jHOXEBJiSjTPnk,32,Male,3,TRUE,0.486,6,0,5,cooperation,FALSE,"When Roxanne wakes up, she will think the puzzle is completed.",FALSE
2548,TRUE,5/17/19 9:24,R_xim6y3PB8NIjgQ1,28,Male,3,TRUE,0,5,0,28,competition,FALSE,"When Roxanne wakes up, she will think the puzzle is completed.",FALSE
2013,TRUE,5/17/19 9:25,R_10Cqoo6FWpNqZKQ,28,Female,3,TRUE,1.308,6,1.4,20,cooperation,FALSE,"When Roxanne wakes up, she will think the puzzle is completed.",FALSE
816,TRUE,5/17/19 9:26,R_RrTB0INEzTxvF7j,29,Female,3,FALSE,1.886,2,1.654,9,neutral,FALSE,"When Roxanne wakes up, she will think the puzzle is completed.",TRUE
614,TRUE,5/17/19 9:26,R_3qOlYFD2TjwT7Eh,24,Male,3,TRUE,0.598,4,1.363,28,neutral,FALSE,"When Roxanne wakes up, she will think the puzzle is completed.",FALSE
946,TRUE,5/17/19 9:27,R_1nSYlT2gcb4N3Wd,26,Female,3,FALSE,1.26,1,0,24,neutral,FALSE,"When Roxanne wakes up, she will think the puzzle is completed.",TRUE
1288,TRUE,5/17/19 9:27,R_2Ybu5kDQPPJglFf,51,Male,3,FALSE,7.464,7,1.618,24,competition,FALSE,"When Roxanne wakes up, she will think the puzzle is completed.",TRUE
1145,TRUE,5/17/19 9:29,R_1IbCKbaB949UZys,29,Male,3,FALSE,0.489,5,0,9,cooperation,FALSE,"When Roxanne wakes up, she will think the puzzle is completed.",TRUE
652,TRUE,5/17/19 9:30,R_1l9LDHJGUsrvvB4,33,Male,3,FALSE,1.321,4,0.641,11,cooperation,FALSE,"When Roxanne wakes up, she will think the puzzle is completed.",TRUE
698,TRUE,5/17/19 9:30,R_1pWZFZXQRwwCFLB,29,Female,3,FALSE,0.23,5,0,24,competition,FALSE,"When Roxanne wakes up, she will think the puzzle is completed.",TRUE
1231,TRUE,5/17/19 9:32,R_3PT40D7GaVX0Xec,34,Female,3,FALSE,1.193,4,0.653,30,neutral,FALSE,"When Roxanne wakes up, she will think the puzzle is completed.",TRUE
1370,TRUE,5/17/19 9:32,R_Y3nV6ylcEp2qNuF,29,Female,3,FALSE,4.475,5,1.415,30,neutral,FALSE,"When Roxanne wakes up, she will think the puzzle is completed.",TRUE
1971,TRUE,5/17/19 9:32,R_1dH0W256QCwYG0H,28,Male,3,FALSE,2.028,4,0,28,neutral,FALSE,"When Roxanne wakes up, she will think the puzzle is completed.",TRUE
481,TRUE,5/17/19 9:32,R_2TZrkHVqXMzP6e4,30,Male,3,TRUE,0,5,0,19,competition,FALSE,"When Roxanne wakes up, she will think the puzzle is completed.",FALSE
743,TRUE,5/17/19 9:33,R_3PoGk1pG4cOmmab,40,Female,3,FALSE,0,5,0,27,neutral,FALSE,"When Roxanne wakes up, she will think the puzzle is completed.",TRUE
501,TRUE,5/17/19 9:33,R_3jVBxyvhCUzwIow,23,Male,3,TRUE,2.828,6,0,10,cooperation,FALSE,"When Roxanne wakes up, she will think the puzzle is completed.",FALSE
1042,TRUE,5/17/19 9:34,R_1eJliyhIwosYnom,25,Male,3,FALSE,0.068,4,0,13,neutral,FALSE,"When Roxanne wakes up, she will think the puzzle is completed.",TRUE
2934,TRUE,5/17/19 9:34,R_1NypHBPXNvJqSD0,28,Male,3,FALSE,3.26,6,2.188,15,cooperation,FALSE,"When Roxanne wakes up, she will think the puzzle is completed.",TRUE
671,TRUE,5/17/19 9:37,R_799RAZOc9qEvsqt,29,Male,3,FALSE,1.343,5,0.574,16,cooperation,FALSE,"When Roxanne wakes up, she will think the puzzle is completed.",TRUE
2612,TRUE,5/17/19 9:40,R_3aU3FqtlIpBbIhX,28,Male,3,FALSE,7.053,5,0,17,neutral,FALSE,"When Roxanne wakes up, she will think the puzzle is completed.",TRUE
3516,TRUE,5/17/19 9:41,R_2ATp8rSYhHaj7zE,28,Male,3,FALSE,30.85,4,0,5,competition,FALSE,"When Roxanne wakes up, she will think the puzzle is completed.",TRUE
716,TRUE,5/17/19 9:42,R_33a0MDUdSG8RINl,28,Female,3,FALSE,1.286,2,0,26,competition,FALSE,"When Roxanne wakes up, she will think the puzzle is completed.",TRUE
474,TRUE,5/17/19 9:44,R_1SboHeKfgnz7fr3,29,Female,3,FALSE,1.138,2,0.734,18,competition,FALSE,"When Roxanne wakes up, she will think the puzzle is completed.",TRUE
1006,TRUE,5/17/19 9:50,R_2dBmN7j0yqFAPj4,41,Male,3,FALSE,4.944,1,2.434,8,neutral,FALSE,"When Roxanne wakes up, she will think the puzzle is completed.",TRUE
2542,TRUE,5/17/19 9:54,R_3p3HtGxosn7DkWj,31,Female,3,FALSE,3.285,1,1.606,2,competition,FALSE,"When Roxanne wakes up, she will think the puzzle is completed.",TRUE
694,TRUE,5/17/19 9:56,R_3e7X1qsBGSFtc0z,25,Male,3,FALSE,2.118,4,0.883,7,neutral,FALSE,"When Roxanne wakes up, she will think the puzzle is completed.",TRUE
538,TRUE,5/17/19 9:56,R_3hFohEPRqcobQLL,39,Male,3,FALSE,1.684,4,0.591,25,cooperation,FALSE,"When Roxanne wakes up, she will think the puzzle is completed.",TRUE
927,TRUE,5/17/19 10:00,R_ANHgtZ5IMn3pASR,51,Male,3,FALSE,2.834,3,1.294,30,competition,FALSE,"When Roxanne wakes up, she will think the puzzle is completed.",TRUE
959,TRUE,5/17/19 10:02,R_3gNQtn49HYlLPPG,50,Male,3,FALSE,1.533,2,0,30,competition,FALSE,"When Roxanne wakes up, she will think the puzzle is completed.",TRUE
1177,TRUE,5/17/19 10:02,R_VR4roOIDYwkmFzP,29,Male,3,FALSE,6.669,5,0,23,cooperation,FALSE,"When Roxanne wakes up, she will think the puzzle is completed.",TRUE
1149,TRUE,5/17/19 10:04,R_25BeFzDdAJzcqDZ,29,Female,3,FALSE,32.296,6,0,8,neutral,FALSE,"When Roxanne wakes up, she will think the puzzle is completed.",TRUE
969,TRUE,5/17/19 10:08,R_2th5HiS5s3Ax1db,41,Female,3,TRUE,2.991,7,0,11,cooperation,FALSE,"When Roxanne wakes up, she will think the puzzle is completed.",FALSE
654,TRUE,5/17/19 10:10,R_8wsRy97E0N4aXvz,54,Female,3,FALSE,1.439,4,0,25,competition,FALSE,"When Roxanne wakes up, she will think the puzzle is completed.",TRUE
983,TRUE,5/17/19 10:10,R_2vcrydYaKqnbUVk,43,Female,3,TRUE,1.22,1,2.199,15,neutral,FALSE,"When Roxanne wakes up, she will think the puzzle is completed.",FALSE
697,TRUE,5/17/19 10:12,R_2TmFUEtzKVbGMJI,32,Male,3,TRUE,0.958,1,0.65,23,competition,FALSE,"When Roxanne wakes up, she will think the puzzle is completed.",FALSE
691,TRUE,5/17/19 10:13,R_3NE5qlSZR4HJk6w,38,Male,3,FALSE,1.859,3,0,25,neutral,FALSE,"When Roxanne wakes up, she will think the puzzle is completed.",TRUE
925,TRUE,5/17/19 10:14,R_3iQpnARiFuuKZgJ,36,Male,3,FALSE,1.433,4,1.489,14,neutral,FALSE,"When Roxanne wakes up, she will think the puzzle is completed.",TRUE
843,TRUE,5/17/19 10:15,R_2ZQvRIsPok6g53G,26,Male,3,FALSE,1.806,6,0,31,cooperation,FALSE,"When Roxanne wakes up, she will think the puzzle is completed.",TRUE
642,TRUE,5/17/19 10:15,R_1dmFsjzSn6uUgoA,33,Female,3,FALSE,1.119,3,1.186,23,cooperation,FALSE,"When Roxanne wakes up, she will think the puzzle is completed.",TRUE
1170,TRUE,5/17/19 10:15,R_25sYL5Hw6t1obag,30,Male,3,FALSE,1.617,3,0,18,cooperation,FALSE,"When Roxanne wakes up, she will think the puzzle is completed.",TRUE
1663,TRUE,5/17/19 10:18,R_2uwHqFqm0kGjDj9,37,Female,3,FALSE,2.209,2,0.865,8,competition,FALSE,"When Roxanne wakes up, she will think the puzzle is completed.",TRUE
1626,TRUE,5/17/19 10:25,R_296cWYz9Rsj5fJz,39,Male,3,FALSE,2.914,4,0,3,neutral,FALSE,"When Roxanne wakes up, she will think the puzzle is completed.",TRUE
834,TRUE,5/17/19 10:36,R_4G74CmUNmf3f3TH,40,Female,3,FALSE,2.263,4,1.054,11,neutral,FALSE,"When Roxanne wakes up, she will think the puzzle is completed.",TRUE
1791,TRUE,5/17/19 10:37,R_1rGFsBopxeiVpuP,59,Female,3,FALSE,4.357,2,1.564,22,competition,FALSE,"When Roxanne wakes up, she will think the puzzle is completed.",TRUE
956,TRUE,5/17/19 10:47,R_10DEoCRvVJVfnmG,36,Male,3,FALSE,1.685,3,0,28,neutral,FALSE,"When Roxanne wakes up, she will think the puzzle is completed.",TRUE
1632,TRUE,5/17/19 11:01,R_3CPjgZ22Bx4XNwm,37,Male,3,FALSE,2.519,3,0,15,neutral,FALSE,"When Roxanne wakes up, she will think the puzzle is completed.",TRUE
2005,TRUE,5/17/19 11:21,R_2aLEy1YwbU47kEF,66,Male,3,FALSE,8.439,3,5.227,17,neutral,FALSE,"When Roxanne wakes up, she will think the puzzle is completed.",TRUE
517,TRUE,5/17/19 8:51,R_2vkROjR461UeBcK,31,Female,4,TRUE,1.425,3,0,13,neutral,TRUE,"When Brad wakes up, he will think that the DVDs are still at the house.",TRUE
615,TRUE,5/17/19 8:52,R_1r6MMWV7DfFqxpd,42,Male,4,TRUE,1.8,5,0,22,cooperation,TRUE,"When Brad wakes up, he will think that the DVDs are still at the house.",TRUE
649,TRUE,5/17/19 8:53,R_25T8irozLCiLVh0,37,Female,4,TRUE,2.249,3,2.067,3,neutral,TRUE,"When Brad wakes up, he will think that the DVDs are still at the house.",TRUE
802,TRUE,5/17/19 8:55,R_25zlzmqXGkuMoAy,37,Female,4,TRUE,1.783,5,0,25,competition,TRUE,"When Brad wakes up, he will think that the DVDs are still at the house.",TRUE
824,TRUE,5/17/19 8:56,R_3lJuzEN9AReQ5wu,32,Male,4,TRUE,2.982,4,0.859,17,neutral,TRUE,"When Brad wakes up, he will think that the DVDs are still at the house.",TRUE
823,TRUE,5/17/19 8:56,R_1OpEbMtZfF51Vcf,36,Male,4,TRUE,1.995,3,0,11,competition,TRUE,"When Brad wakes up, he will think that the DVDs are still at the house.",TRUE
816,TRUE,5/17/19 8:56,R_3R9Nfp2ZRQx5m2K,49,Male,4,TRUE,2.21,7,1.377,25,cooperation,TRUE,"When Brad wakes up, he will think that the DVDs are still at the house.",TRUE
891,TRUE,5/17/19 8:57,R_3fjCpZoHRW1A2Ne,26,Female,4,TRUE,1.342,4,0,31,neutral,TRUE,"When Brad wakes up, he will think that the DVDs are still at the house.",TRUE
888,TRUE,5/17/19 8:57,R_DwQFzpjRs6OWsVj,57,Male,4,TRUE,1.914,1,0.726,29,competition,TRUE,"When Brad wakes up, he will think that the DVDs are still at the house.",TRUE
921,TRUE,5/17/19 8:58,R_3xGmIO9l4b0xjkB,45,Male,4,TRUE,3.014,3,5.55,8,neutral,TRUE,"When Brad wakes up, he will think that the DVDs are still at the house.",TRUE
555,TRUE,5/17/19 8:58,R_1i2GGu5vP49VOSx,33,Female,4,FALSE,0.324,2,0.242,6,competition,TRUE,"When Brad wakes up, he will think that the DVDs are still at the house.",FALSE
872,TRUE,5/17/19 8:58,R_3LZJmEfxFNA9QM1,24,Male,4,TRUE,1.141,4,0,6,neutral,TRUE,"When Brad wakes up, he will think that the DVDs are still at the house.",TRUE
582,TRUE,5/17/19 8:58,R_6JVr2yclf78Ur7z,40,Male,4,TRUE,1.131,6,1.071,26,cooperation,TRUE,"When Brad wakes up, he will think that the DVDs are still at the house.",TRUE
749,TRUE,5/17/19 8:59,R_2OUvCFq6IOByioY,65,Male,4,TRUE,0,7,1.267,25,cooperation,TRUE,"When Brad wakes up, he will think that the DVDs are still at the house.",TRUE
890,TRUE,5/17/19 8:59,R_3OjBivwNVJgGCFm,60,Female,4,TRUE,6.155,6,2.707,3,cooperation,TRUE,"When Brad wakes up, he will think that the DVDs are still at the house.",TRUE
960,TRUE,5/17/19 8:59,R_1dgchqMkrwtYRuw,25,Male,4,TRUE,2.38,7,0.927,17,cooperation,TRUE,"When Brad wakes up, he will think that the DVDs are still at the house.",TRUE
951,TRUE,5/17/19 9:00,R_SHwxBm7rrXS6UuJ,60,Female,4,TRUE,1.614,7,1.758,28,cooperation,TRUE,"When Brad wakes up, he will think that the DVDs are still at the house.",TRUE
965,TRUE,5/17/19 9:00,R_1jdGOcwp6nTs8Cm,28,Male,4,TRUE,2.082,3,3.183,15,competition,TRUE,"When Brad wakes up, he will think that the DVDs are still at the house.",TRUE
1086,TRUE,5/17/19 9:00,R_3kdfn7V66RfiGJP,49,Male,4,TRUE,2.615,5,4.312,13,cooperation,TRUE,"When Brad wakes up, he will think that the DVDs are still at the house.",TRUE
1096,TRUE,5/17/19 9:01,R_C8IZCVpfJk9pRex,46,Male,4,TRUE,1.518,1,0,9,competition,TRUE,"When Brad wakes up, he will think that the DVDs are still at the house.",TRUE
939,TRUE,5/17/19 9:01,R_2ylbMvSHnM4PuIq,31,Male,4,TRUE,0.626,5,0.356,13,cooperation,TRUE,"When Brad wakes up, he will think that the DVDs are still at the house.",TRUE
1234,TRUE,5/17/19 9:02,R_1pS4Yf6fKavO3cv,48,Male,4,TRUE,1.901,3,1.622,31,neutral,TRUE,"When Brad wakes up, he will think that the DVDs are still at the house.",TRUE
1265,TRUE,5/17/19 9:03,R_1oGTEKsFA05S3nG,63,Male,4,TRUE,2.374,4,1.456,20,neutral,TRUE,"When Brad wakes up, he will think that the DVDs are still at the house.",TRUE
931,TRUE,5/17/19 9:03,R_3nqkGhiEKj7lACI,37,Male,4,TRUE,3.165,3,1.319,24,competition,TRUE,"When Brad wakes up, he will think that the DVDs are still at the house.",TRUE
1183,TRUE,5/17/19 9:03,R_2bZdLlIE23PGHei,27,Male,4,TRUE,15.756,1,1.055,3,neutral,TRUE,"When Brad wakes up, he will think that the DVDs are still at the house.",TRUE
1307,TRUE,5/17/19 9:04,R_2pJG64saaKdTEdF,30,Male,4,TRUE,2.585,4,2.016,12,neutral,TRUE,"When Brad wakes up, he will think that the DVDs are still at the house.",TRUE
1122,TRUE,5/17/19 9:04,R_Wj28Vrunc9JSU01,45,Male,4,TRUE,3.279,2,1.972,5,competition,TRUE,"When Brad wakes up, he will think that the DVDs are still at the house.",TRUE
910,TRUE,5/17/19 9:06,R_24jDzYSpw6orAoF,42,Male,4,TRUE,2.092,7,0,5,cooperation,TRUE,"When Brad wakes up, he will think that the DVDs are still at the house.",TRUE
1421,TRUE,5/17/19 9:06,R_7WGQFotDexFeJ6V,29,Female,4,TRUE,17.147,3,1.054,27,competition,TRUE,"When Brad wakes up, he will think that the DVDs are still at the house.",TRUE
525,TRUE,5/17/19 9:06,R_3hiuPltAaux0CPe,30,Male,4,TRUE,0.644,6,0.735,7,neutral,TRUE,"When Brad wakes up, he will think that the DVDs are still at the house.",TRUE
1495,TRUE,5/17/19 9:07,R_1H8EPfrxw1tw3uT,28,Male,4,TRUE,0.881,4,0.637,18,cooperation,TRUE,"When Brad wakes up, he will think that the DVDs are still at the house.",TRUE
689,TRUE,5/17/19 9:10,R_3qIIkYISe34fYTW,30,Male,4,TRUE,6.434,6,3.644,1,neutral,TRUE,"When Brad wakes up, he will think that the DVDs are still at the house.",TRUE
979,TRUE,5/17/19 9:13,R_3Hk4VqEtJFuflJG,30,Male,4,TRUE,2.014,2,0.901,21,competition,TRUE,"When Brad wakes up, he will think that the DVDs are still at the house.",TRUE
554,TRUE,5/17/19 9:13,R_3iwAo9G4BlbfxMT,36,Female,4,TRUE,1.59,4,1.155,10,neutral,TRUE,"When Brad wakes up, he will think that the DVDs are still at the house.",TRUE
1539,TRUE,5/17/19 9:13,R_uwZWXUzmEJ929yx,26,Male,4,TRUE,2.47,7,0.855,19,cooperation,TRUE,"When Brad wakes up, he will think that the DVDs are still at the house.",TRUE
1193,TRUE,5/17/19 9:14,R_yKrxbqBtaOqkkq5,31,Male,4,TRUE,2.065,6,1.677,12,cooperation,TRUE,"When Brad wakes up, he will think that the DVDs are still at the house.",TRUE
957,TRUE,5/17/19 9:14,R_1fgdqRVxewCWKBK,45,Male,4,TRUE,3.443,6,1.411,7,cooperation,TRUE,"When Brad wakes up, he will think that the DVDs are still at the house.",TRUE
1624,TRUE,5/17/19 9:15,R_27qhgEOUWt1ih9T,52,Female,4,TRUE,2.715,1,0,3,competition,TRUE,"When Brad wakes up, he will think that the DVDs are still at the house.",TRUE
1607,TRUE,5/17/19 9:17,R_qJhne5qHTvnA7PX,35,Female,4,TRUE,6.945,7,0.79,18,neutral,TRUE,"When Brad wakes up, he will think that the DVDs are still at the house.",TRUE
721,TRUE,5/17/19 9:18,R_2xRveXWptVzNKax,38,Male,4,TRUE,1.784,7,0,7,cooperation,TRUE,"When Brad wakes up, he will think that the DVDs are still at the house.",TRUE
1547,TRUE,5/17/19 9:19,R_1poPVjQ9yIaHj1a,23,Male,4,TRUE,14.237,1,12.176,1,neutral,TRUE,"When Brad wakes up, he will think that the DVDs are still at the house.",TRUE
601,TRUE,5/17/19 9:20,R_1EX4utjEpf5jXSr,29,Male,4,TRUE,1.03,2,0,12,cooperation,TRUE,"When Brad wakes up, he will think that the DVDs are still at the house.",TRUE
1711,TRUE,5/17/19 9:21,R_ZLcGge8RHZkT1WF,46,Female,4,TRUE,4.103,6,0,3,cooperation,TRUE,"When Brad wakes up, he will think that the DVDs are still at the house.",TRUE
2306,TRUE,5/17/19 9:21,R_pAvU65MY7pjtBRf,33,Male,4,TRUE,3.555,4,2.443,8,neutral,TRUE,"When Brad wakes up, he will think that the DVDs are still at the house.",TRUE
715,TRUE,5/17/19 9:22,R_2QFlghnGSCTBnW5,32,Male,4,TRUE,2.329,5,0,9,cooperation,TRUE,"When Brad wakes up, he will think that the DVDs are still at the house.",TRUE
636,TRUE,5/17/19 9:22,R_2YLESYn9rXIXboZ,33,Female,4,TRUE,1.354,7,0,11,cooperation,TRUE,"When Brad wakes up, he will think that the DVDs are still at the house.",TRUE
1324,TRUE,5/17/19 9:23,R_2w6T9qpjVHCU9zO,42,Male,4,TRUE,1.751,7,0.408,17,cooperation,TRUE,"When Brad wakes up, he will think that the DVDs are still at the house.",TRUE
482,TRUE,5/17/19 9:24,R_1jHOXEBJiSjTPnk,32,Male,4,TRUE,0,6,0,30,competition,TRUE,"When Brad wakes up, he will think that the DVDs are still at the house.",TRUE
2548,TRUE,5/17/19 9:24,R_xim6y3PB8NIjgQ1,28,Male,4,TRUE,1.004,5,0,9,neutral,TRUE,"When Brad wakes up, he will think that the DVDs are still at the house.",TRUE
2013,TRUE,5/17/19 9:25,R_10Cqoo6FWpNqZKQ,28,Female,4,TRUE,6.592,5,1.551,16,neutral,TRUE,"When Brad wakes up, he will think that the DVDs are still at the house.",TRUE
816,TRUE,5/17/19 9:26,R_RrTB0INEzTxvF7j,29,Female,4,TRUE,3.459,5,1.065,14,cooperation,TRUE,"When Brad wakes up, he will think that the DVDs are still at the house.",TRUE
614,TRUE,5/17/19 9:26,R_3qOlYFD2TjwT7Eh,24,Male,4,TRUE,0.704,3,0,17,competition,TRUE,"When Brad wakes up, he will think that the DVDs are still at the house.",TRUE
946,TRUE,5/17/19 9:27,R_1nSYlT2gcb4N3Wd,26,Female,4,TRUE,1.307,7,1.135,18,cooperation,TRUE,"When Brad wakes up, he will think that the DVDs are still at the house.",TRUE
1288,TRUE,5/17/19 9:27,R_2Ybu5kDQPPJglFf,51,Male,4,FALSE,2.673,7,2.541,14,cooperation,TRUE,"When Brad wakes up, he will think that the DVDs are still at the house.",FALSE
1145,TRUE,5/17/19 9:29,R_1IbCKbaB949UZys,29,Male,4,FALSE,0.338,5,0,24,neutral,TRUE,"When Brad wakes up, he will think that the DVDs are still at the house.",FALSE
652,TRUE,5/17/19 9:30,R_1l9LDHJGUsrvvB4,33,Male,4,TRUE,1.768,4,0.998,5,cooperation,TRUE,"When Brad wakes up, he will think that the DVDs are still at the house.",TRUE
698,TRUE,5/17/19 9:30,R_1pWZFZXQRwwCFLB,29,Female,4,TRUE,0.333,6,0,2,competition,TRUE,"When Brad wakes up, he will think that the DVDs are still at the house.",TRUE
1231,TRUE,5/17/19 9:32,R_3PT40D7GaVX0Xec,34,Female,4,TRUE,1.028,7,0.625,17,cooperation,TRUE,"When Brad wakes up, he will think that the DVDs are still at the house.",TRUE
1370,TRUE,5/17/19 9:32,R_Y3nV6ylcEp2qNuF,29,Female,4,TRUE,1.721,2,0,27,competition,TRUE,"When Brad wakes up, he will think that the DVDs are still at the house.",TRUE
1971,TRUE,5/17/19 9:32,R_1dH0W256QCwYG0H,28,Male,4,TRUE,2.836,6,2.225,2,cooperation,TRUE,"When Brad wakes up, he will think that the DVDs are still at the house.",TRUE
481,TRUE,5/17/19 9:32,R_2TZrkHVqXMzP6e4,30,Male,4,FALSE,0.173,4,0,4,cooperation,TRUE,"When Brad wakes up, he will think that the DVDs are still at the house.",FALSE
743,TRUE,5/17/19 9:33,R_3PoGk1pG4cOmmab,40,Female,4,FALSE,0.143,4,0.142,31,competition,TRUE,"When Brad wakes up, he will think that the DVDs are still at the house.",FALSE
501,TRUE,5/17/19 9:33,R_3jVBxyvhCUzwIow,23,Male,4,TRUE,3.621,7,0,1,neutral,TRUE,"When Brad wakes up, he will think that the DVDs are still at the house.",TRUE
1042,TRUE,5/17/19 9:34,R_1eJliyhIwosYnom,25,Male,4,TRUE,0,6,0.21,4,cooperation,TRUE,"When Brad wakes up, he will think that the DVDs are still at the house.",TRUE
2934,TRUE,5/17/19 9:34,R_1NypHBPXNvJqSD0,28,Male,4,FALSE,23.887,5,12.49,1,neutral,TRUE,"When Brad wakes up, he will think that the DVDs are still at the house.",FALSE
671,TRUE,5/17/19 9:37,R_799RAZOc9qEvsqt,29,Male,4,TRUE,2.619,6,1.744,2,cooperation,TRUE,"When Brad wakes up, he will think that the DVDs are still at the house.",TRUE
2612,TRUE,5/17/19 9:40,R_3aU3FqtlIpBbIhX,28,Male,4,TRUE,0.744,6,0,30,neutral,TRUE,"When Brad wakes up, he will think that the DVDs are still at the house.",TRUE
3516,TRUE,5/17/19 9:41,R_2ATp8rSYhHaj7zE,28,Male,4,TRUE,0.25,5,0,26,neutral,TRUE,"When Brad wakes up, he will think that the DVDs are still at the house.",TRUE
716,TRUE,5/17/19 9:42,R_33a0MDUdSG8RINl,28,Female,4,TRUE,1.227,2,0.815,9,competition,TRUE,"When Brad wakes up, he will think that the DVDs are still at the house.",TRUE
474,TRUE,5/17/19 9:44,R_1SboHeKfgnz7fr3,29,Female,4,TRUE,2.166,6,14.787,8,cooperation,TRUE,"When Brad wakes up, he will think that the DVDs are still at the house.",TRUE
1006,TRUE,5/17/19 9:50,R_2dBmN7j0yqFAPj4,41,Male,4,TRUE,5.578,1,2.056,2,competition,TRUE,"When Brad wakes up, he will think that the DVDs are still at the house.",TRUE
2542,TRUE,5/17/19 9:54,R_3p3HtGxosn7DkWj,31,Female,4,TRUE,2.634,7,0.798,6,cooperation,TRUE,"When Brad wakes up, he will think that the DVDs are still at the house.",TRUE
694,TRUE,5/17/19 9:56,R_3e7X1qsBGSFtc0z,25,Male,4,TRUE,2.552,1,0.307,26,competition,TRUE,"When Brad wakes up, he will think that the DVDs are still at the house.",TRUE
538,TRUE,5/17/19 9:56,R_3hFohEPRqcobQLL,39,Male,4,TRUE,1.271,5,0,26,cooperation,TRUE,"When Brad wakes up, he will think that the DVDs are still at the house.",TRUE
927,TRUE,5/17/19 10:00,R_ANHgtZ5IMn3pASR,51,Male,4,TRUE,2.742,3,3.681,24,competition,TRUE,"When Brad wakes up, he will think that the DVDs are still at the house.",TRUE
959,TRUE,5/17/19 10:02,R_3gNQtn49HYlLPPG,50,Male,4,TRUE,10.035,3,5.284,3,neutral,TRUE,"When Brad wakes up, he will think that the DVDs are still at the house.",TRUE
1177,TRUE,5/17/19 10:02,R_VR4roOIDYwkmFzP,29,Male,4,TRUE,32.616,6,0,8,competition,TRUE,"When Brad wakes up, he will think that the DVDs are still at the house.",TRUE
1149,TRUE,5/17/19 10:04,R_25BeFzDdAJzcqDZ,29,Female,4,FALSE,81.531,5,3.284,2,neutral,TRUE,"When Brad wakes up, he will think that the DVDs are still at the house.",FALSE
969,TRUE,5/17/19 10:08,R_2th5HiS5s3Ax1db,41,Female,4,TRUE,2.537,7,0,16,neutral,TRUE,"When Brad wakes up, he will think that the DVDs are still at the house.",TRUE
654,TRUE,5/17/19 10:10,R_8wsRy97E0N4aXvz,54,Female,4,TRUE,1.649,5,0,20,cooperation,TRUE,"When Brad wakes up, he will think that the DVDs are still at the house.",TRUE
983,TRUE,5/17/19 10:10,R_2vcrydYaKqnbUVk,43,Female,4,TRUE,3.46,4,0,6,cooperation,TRUE,"When Brad wakes up, he will think that the DVDs are still at the house.",TRUE
697,TRUE,5/17/19 10:12,R_2TmFUEtzKVbGMJI,32,Male,4,TRUE,1.903,1,0.615,21,neutral,TRUE,"When Brad wakes up, he will think that the DVDs are still at the house.",TRUE
691,TRUE,5/17/19 10:13,R_3NE5qlSZR4HJk6w,38,Male,4,TRUE,0.94,7,0,29,cooperation,TRUE,"When Brad wakes up, he will think that the DVDs are still at the house.",TRUE
925,TRUE,5/17/19 10:14,R_3iQpnARiFuuKZgJ,36,Male,4,TRUE,1.593,2,0.576,28,competition,TRUE,"When Brad wakes up, he will think that the DVDs are still at the house.",TRUE
843,TRUE,5/17/19 10:15,R_2ZQvRIsPok6g53G,26,Male,4,TRUE,1.53,7,0,19,cooperation,TRUE,"When Brad wakes up, he will think that the DVDs are still at the house.",TRUE
642,TRUE,5/17/19 10:15,R_1dmFsjzSn6uUgoA,33,Female,4,TRUE,1.721,3,3.068,11,neutral,TRUE,"When Brad wakes up, he will think that the DVDs are still at the house.",TRUE
1170,TRUE,5/17/19 10:15,R_25sYL5Hw6t1obag,30,Male,4,TRUE,1.405,2,0.335,30,competition,TRUE,"When Brad wakes up, he will think that the DVDs are still at the house.",TRUE
1663,TRUE,5/17/19 10:18,R_2uwHqFqm0kGjDj9,37,Female,4,TRUE,1.98,2,2.595,14,competition,TRUE,"When Brad wakes up, he will think that the DVDs are still at the house.",TRUE
1626,TRUE,5/17/19 10:25,R_296cWYz9Rsj5fJz,39,Male,4,TRUE,2.012,1,0,8,competition,TRUE,"When Brad wakes up, he will think that the DVDs are still at the house.",TRUE
834,TRUE,5/17/19 10:36,R_4G74CmUNmf3f3TH,40,Female,4,TRUE,6.216,4,3.278,1,neutral,TRUE,"When Brad wakes up, he will think that the DVDs are still at the house.",TRUE
1791,TRUE,5/17/19 10:37,R_1rGFsBopxeiVpuP,59,Female,4,TRUE,3.721,4,1.729,6,neutral,TRUE,"When Brad wakes up, he will think that the DVDs are still at the house.",TRUE
956,TRUE,5/17/19 10:47,R_10DEoCRvVJVfnmG,36,Male,4,TRUE,3.688,2,2.963,29,competition,TRUE,"When Brad wakes up, he will think that the DVDs are still at the house.",TRUE
1632,TRUE,5/17/19 11:01,R_3CPjgZ22Bx4XNwm,37,Male,4,TRUE,3.315,5,0,11,neutral,TRUE,"When Brad wakes up, he will think that the DVDs are still at the house.",TRUE
2005,TRUE,5/17/19 11:21,R_2aLEy1YwbU47kEF,66,Male,4,TRUE,7.325,1,1.99,7,competition,TRUE,"When Brad wakes up, he will think that the DVDs are still at the house.",TRUE
517,TRUE,5/17/19 8:51,R_2vkROjR461UeBcK,31,Female,5,TRUE,1.823,4,0,31,neutral,TRUE,"While Davon is outside, he will think that his desk is cleared of any items.",TRUE
615,TRUE,5/17/19 8:52,R_1r6MMWV7DfFqxpd,42,Male,5,FALSE,5.101,2,1.493,14,competition,TRUE,"While Davon is outside, he will think that his desk is cleared of any items.",FALSE
649,TRUE,5/17/19 8:53,R_25T8irozLCiLVh0,37,Female,5,TRUE,2.781,4,2.565,9,cooperation,TRUE,"While Davon is outside, he will think that his desk is cleared of any items.",TRUE
802,TRUE,5/17/19 8:55,R_25zlzmqXGkuMoAy,37,Female,5,TRUE,2.169,4,0,17,cooperation,TRUE,"While Davon is outside, he will think that his desk is cleared of any items.",TRUE
824,TRUE,5/17/19 8:56,R_3lJuzEN9AReQ5wu,32,Male,5,TRUE,4.138,3,5.575,13,neutral,TRUE,"While Davon is outside, he will think that his desk is cleared of any items.",TRUE
823,TRUE,5/17/19 8:56,R_1OpEbMtZfF51Vcf,36,Male,5,TRUE,4.18,3,0,4,cooperation,TRUE,"While Davon is outside, he will think that his desk is cleared of any items.",TRUE
816,TRUE,5/17/19 8:56,R_3R9Nfp2ZRQx5m2K,49,Male,5,TRUE,2.329,4,0.919,11,neutral,TRUE,"While Davon is outside, he will think that his desk is cleared of any items.",TRUE
891,TRUE,5/17/19 8:57,R_3fjCpZoHRW1A2Ne,26,Female,5,TRUE,3.342,5,0,16,cooperation,TRUE,"While Davon is outside, he will think that his desk is cleared of any items.",TRUE
888,TRUE,5/17/19 8:57,R_DwQFzpjRs6OWsVj,57,Male,5,FALSE,4.332,1,1.101,12,competition,TRUE,"While Davon is outside, he will think that his desk is cleared of any items.",FALSE
921,TRUE,5/17/19 8:58,R_3xGmIO9l4b0xjkB,45,Male,5,TRUE,2.764,5,1.634,9,neutral,TRUE,"While Davon is outside, he will think that his desk is cleared of any items.",TRUE
555,TRUE,5/17/19 8:58,R_1i2GGu5vP49VOSx,33,Female,5,FALSE,0.871,2,0.526,15,competition,TRUE,"While Davon is outside, he will think that his desk is cleared of any items.",FALSE
872,TRUE,5/17/19 8:58,R_3LZJmEfxFNA9QM1,24,Male,5,TRUE,2.045,2,0,11,neutral,TRUE,"While Davon is outside, he will think that his desk is cleared of any items.",TRUE
582,TRUE,5/17/19 8:58,R_6JVr2yclf78Ur7z,40,Male,5,FALSE,2.643,5,0.484,30,cooperation,TRUE,"While Davon is outside, he will think that his desk is cleared of any items.",FALSE
749,TRUE,5/17/19 8:59,R_2OUvCFq6IOByioY,65,Male,5,TRUE,2.047,7,0,15,cooperation,TRUE,"While Davon is outside, he will think that his desk is cleared of any items.",TRUE
890,TRUE,5/17/19 8:59,R_3OjBivwNVJgGCFm,60,Female,5,TRUE,3.795,5,2.712,22,cooperation,TRUE,"While Davon is outside, he will think that his desk is cleared of any items.",TRUE
960,TRUE,5/17/19 8:59,R_1dgchqMkrwtYRuw,25,Male,5,TRUE,1.997,1,1.052,21,competition,TRUE,"While Davon is outside, he will think that his desk is cleared of any items.",TRUE
951,TRUE,5/17/19 9:00,R_SHwxBm7rrXS6UuJ,60,Female,5,TRUE,3.946,7,1.875,20,cooperation,TRUE,"While Davon is outside, he will think that his desk is cleared of any items.",TRUE
965,TRUE,5/17/19 9:00,R_1jdGOcwp6nTs8Cm,28,Male,5,TRUE,3.939,2,1.544,8,competition,TRUE,"While Davon is outside, he will think that his desk is cleared of any items.",TRUE
1086,TRUE,5/17/19 9:00,R_3kdfn7V66RfiGJP,49,Male,5,TRUE,4.576,4,1.491,9,neutral,TRUE,"While Davon is outside, he will think that his desk is cleared of any items.",TRUE
1096,TRUE,5/17/19 9:01,R_C8IZCVpfJk9pRex,46,Male,5,TRUE,5.735,4,1.503,26,cooperation,TRUE,"While Davon is outside, he will think that his desk is cleared of any items.",TRUE
939,TRUE,5/17/19 9:01,R_2ylbMvSHnM4PuIq,31,Male,5,TRUE,1.661,5,0.886,30,cooperation,TRUE,"While Davon is outside, he will think that his desk is cleared of any items.",TRUE
1234,TRUE,5/17/19 9:02,R_1pS4Yf6fKavO3cv,48,Male,5,TRUE,1.798,1,0.976,23,competition,TRUE,"While Davon is outside, he will think that his desk is cleared of any items.",TRUE
1265,TRUE,5/17/19 9:03,R_1oGTEKsFA05S3nG,63,Male,5,TRUE,2.482,4,1.493,4,cooperation,TRUE,"While Davon is outside, he will think that his desk is cleared of any items.",TRUE
931,TRUE,5/17/19 9:03,R_3nqkGhiEKj7lACI,37,Male,5,TRUE,4.614,4,0,17,cooperation,TRUE,"While Davon is outside, he will think that his desk is cleared of any items.",TRUE
1183,TRUE,5/17/19 9:03,R_2bZdLlIE23PGHei,27,Male,5,TRUE,19.063,1,1.249,2,neutral,TRUE,"While Davon is outside, he will think that his desk is cleared of any items.",TRUE
1307,TRUE,5/17/19 9:04,R_2pJG64saaKdTEdF,30,Male,5,TRUE,2.353,4,0.778,17,neutral,TRUE,"While Davon is outside, he will think that his desk is cleared of any items.",TRUE
1122,TRUE,5/17/19 9:04,R_Wj28Vrunc9JSU01,45,Male,5,TRUE,2.536,4,7.323,19,neutral,TRUE,"While Davon is outside, he will think that his desk is cleared of any items.",TRUE
910,TRUE,5/17/19 9:06,R_24jDzYSpw6orAoF,42,Male,5,TRUE,2.729,1,0.703,7,competition,TRUE,"While Davon is outside, he will think that his desk is cleared of any items.",TRUE
1421,TRUE,5/17/19 9:06,R_7WGQFotDexFeJ6V,29,Female,5,FALSE,2.282,4,1.244,28,cooperation,TRUE,"While Davon is outside, he will think that his desk is cleared of any items.",FALSE
525,TRUE,5/17/19 9:06,R_3hiuPltAaux0CPe,30,Male,5,FALSE,2.135,3,0,6,competition,TRUE,"While Davon is outside, he will think that his desk is cleared of any items.",FALSE
1495,TRUE,5/17/19 9:07,R_1H8EPfrxw1tw3uT,28,Male,5,FALSE,1.78,7,0.158,26,cooperation,TRUE,"While Davon is outside, he will think that his desk is cleared of any items.",FALSE
689,TRUE,5/17/19 9:10,R_3qIIkYISe34fYTW,30,Male,5,TRUE,0,6,0,14,cooperation,TRUE,"While Davon is outside, he will think that his desk is cleared of any items.",TRUE
979,TRUE,5/17/19 9:13,R_3Hk4VqEtJFuflJG,30,Male,5,TRUE,25.194,2,4.044,1,competition,TRUE,"While Davon is outside, he will think that his desk is cleared of any items.",TRUE
554,TRUE,5/17/19 9:13,R_3iwAo9G4BlbfxMT,36,Female,5,TRUE,2.074,3,0.301,19,competition,TRUE,"While Davon is outside, he will think that his desk is cleared of any items.",TRUE
1539,TRUE,5/17/19 9:13,R_uwZWXUzmEJ929yx,26,Male,5,TRUE,5.248,1,0.593,15,competition,TRUE,"While Davon is outside, he will think that his desk is cleared of any items.",TRUE
1193,TRUE,5/17/19 9:14,R_yKrxbqBtaOqkkq5,31,Male,5,TRUE,3.071,4,0.225,27,neutral,TRUE,"While Davon is outside, he will think that his desk is cleared of any items.",TRUE
957,TRUE,5/17/19 9:14,R_1fgdqRVxewCWKBK,45,Male,5,FALSE,9.178,4,2.451,24,neutral,TRUE,"While Davon is outside, he will think that his desk is cleared of any items.",FALSE
1624,TRUE,5/17/19 9:15,R_27qhgEOUWt1ih9T,52,Female,5,TRUE,2.689,4,0,4,neutral,TRUE,"While Davon is outside, he will think that his desk is cleared of any items.",TRUE
1607,TRUE,5/17/19 9:17,R_qJhne5qHTvnA7PX,35,Female,5,TRUE,9.358,7,0.906,20,neutral,TRUE,"While Davon is outside, he will think that his desk is cleared of any items.",TRUE
721,TRUE,5/17/19 9:18,R_2xRveXWptVzNKax,38,Male,5,TRUE,3.497,1,0,28,competition,TRUE,"While Davon is outside, he will think that his desk is cleared of any items.",TRUE
1547,TRUE,5/17/19 9:19,R_1poPVjQ9yIaHj1a,23,Male,5,TRUE,9.828,2,0,5,neutral,TRUE,"While Davon is outside, he will think that his desk is cleared of any items.",TRUE
601,TRUE,5/17/19 9:20,R_1EX4utjEpf5jXSr,29,Male,5,TRUE,4.681,1,0,16,competition,TRUE,"While Davon is outside, he will think that his desk is cleared of any items.",TRUE
1711,TRUE,5/17/19 9:21,R_ZLcGge8RHZkT1WF,46,Female,5,TRUE,3.489,1,1.185,10,competition,TRUE,"While Davon is outside, he will think that his desk is cleared of any items.",TRUE
2306,TRUE,5/17/19 9:21,R_pAvU65MY7pjtBRf,33,Male,5,TRUE,5.896,7,0,5,cooperation,TRUE,"While Davon is outside, he will think that his desk is cleared of any items.",TRUE
715,TRUE,5/17/19 9:22,R_2QFlghnGSCTBnW5,32,Male,5,TRUE,2.141,1,0,10,competition,TRUE,"While Davon is outside, he will think that his desk is cleared of any items.",TRUE
636,TRUE,5/17/19 9:22,R_2YLESYn9rXIXboZ,33,Female,5,TRUE,2.144,3,1.668,8,neutral,TRUE,"While Davon is outside, he will think that his desk is cleared of any items.",TRUE
1324,TRUE,5/17/19 9:23,R_2w6T9qpjVHCU9zO,42,Male,5,TRUE,2.92,3,1.856,24,neutral,TRUE,"While Davon is outside, he will think that his desk is cleared of any items.",TRUE
482,TRUE,5/17/19 9:24,R_1jHOXEBJiSjTPnk,32,Male,5,TRUE,4.544,6,0.957,11,competition,TRUE,"While Davon is outside, he will think that his desk is cleared of any items.",TRUE
2548,TRUE,5/17/19 9:24,R_xim6y3PB8NIjgQ1,28,Male,5,TRUE,0.772,5,0,31,cooperation,TRUE,"While Davon is outside, he will think that his desk is cleared of any items.",TRUE
2013,TRUE,5/17/19 9:25,R_10Cqoo6FWpNqZKQ,28,Female,5,FALSE,1.281,5,1.616,24,neutral,TRUE,"While Davon is outside, he will think that his desk is cleared of any items.",FALSE
816,TRUE,5/17/19 9:26,R_RrTB0INEzTxvF7j,29,Female,5,TRUE,2.484,1,0,5,competition,TRUE,"While Davon is outside, he will think that his desk is cleared of any items.",TRUE
614,TRUE,5/17/19 9:26,R_3qOlYFD2TjwT7Eh,24,Male,5,TRUE,2.79,2,0,6,competition,TRUE,"While Davon is outside, he will think that his desk is cleared of any items.",TRUE
946,TRUE,5/17/19 9:27,R_1nSYlT2gcb4N3Wd,26,Female,5,FALSE,6.311,3,0,22,neutral,TRUE,"While Davon is outside, he will think that his desk is cleared of any items.",FALSE
1288,TRUE,5/17/19 9:27,R_2Ybu5kDQPPJglFf,51,Male,5,FALSE,3.817,5,2.883,7,neutral,TRUE,"While Davon is outside, he will think that his desk is cleared of any items.",FALSE
1145,TRUE,5/17/19 9:29,R_1IbCKbaB949UZys,29,Male,5,TRUE,0,5,0.12,28,competition,TRUE,"While Davon is outside, he will think that his desk is cleared of any items.",TRUE
652,TRUE,5/17/19 9:30,R_1l9LDHJGUsrvvB4,33,Male,5,FALSE,1.961,4,0.159,25,neutral,TRUE,"While Davon is outside, he will think that his desk is cleared of any items.",FALSE
698,TRUE,5/17/19 9:30,R_1pWZFZXQRwwCFLB,29,Female,5,TRUE,0.253,5,0,1,cooperation,TRUE,"While Davon is outside, he will think that his desk is cleared of any items.",TRUE
1231,TRUE,5/17/19 9:32,R_3PT40D7GaVX0Xec,34,Female,5,TRUE,1.826,4,0.827,4,neutral,TRUE,"While Davon is outside, he will think that his desk is cleared of any items.",TRUE
1370,TRUE,5/17/19 9:32,R_Y3nV6ylcEp2qNuF,29,Female,5,FALSE,1.254,4,1.053,13,neutral,TRUE,"While Davon is outside, he will think that his desk is cleared of any items.",FALSE
1971,TRUE,5/17/19 9:32,R_1dH0W256QCwYG0H,28,Male,5,TRUE,6.322,3,0,29,neutral,TRUE,"While Davon is outside, he will think that his desk is cleared of any items.",TRUE
481,TRUE,5/17/19 9:32,R_2TZrkHVqXMzP6e4,30,Male,5,TRUE,0,5,0,18,cooperation,TRUE,"While Davon is outside, he will think that his desk is cleared of any items.",TRUE
743,TRUE,5/17/19 9:33,R_3PoGk1pG4cOmmab,40,Female,5,FALSE,2.403,3,0.333,6,cooperation,TRUE,"While Davon is outside, he will think that his desk is cleared of any items.",FALSE
501,TRUE,5/17/19 9:33,R_3jVBxyvhCUzwIow,23,Male,5,TRUE,4.467,1,1.843,2,competition,TRUE,"While Davon is outside, he will think that his desk is cleared of any items.",TRUE
1042,TRUE,5/17/19 9:34,R_1eJliyhIwosYnom,25,Male,5,FALSE,0,3,0,6,neutral,TRUE,"While Davon is outside, he will think that his desk is cleared of any items.",FALSE
2934,TRUE,5/17/19 9:34,R_1NypHBPXNvJqSD0,28,Male,5,TRUE,4.935,5,1966.177,2,cooperation,TRUE,"While Davon is outside, he will think that his desk is cleared of any items.",TRUE
671,TRUE,5/17/19 9:37,R_799RAZOc9qEvsqt,29,Male,5,TRUE,2.67,1,1.08,6,competition,TRUE,"While Davon is outside, he will think that his desk is cleared of any items.",TRUE
2612,TRUE,5/17/19 9:40,R_3aU3FqtlIpBbIhX,28,Male,5,TRUE,0.738,4,0,8,cooperation,TRUE,"While Davon is outside, he will think that his desk is cleared of any items.",TRUE
3516,TRUE,5/17/19 9:41,R_2ATp8rSYhHaj7zE,28,Male,5,TRUE,29.97,5,0,18,neutral,TRUE,"While Davon is outside, he will think that his desk is cleared of any items.",TRUE
716,TRUE,5/17/19 9:42,R_33a0MDUdSG8RINl,28,Female,5,TRUE,2.521,4,2.789,1,neutral,TRUE,"While Davon is outside, he will think that his desk is cleared of any items.",TRUE
474,TRUE,5/17/19 9:44,R_1SboHeKfgnz7fr3,29,Female,5,TRUE,1.713,3,1.907,6,neutral,TRUE,"While Davon is outside, he will think that his desk is cleared of any items.",TRUE
1006,TRUE,5/17/19 9:50,R_2dBmN7j0yqFAPj4,41,Male,5,TRUE,2.817,1,1.833,7,competition,TRUE,"While Davon is outside, he will think that his desk is cleared of any items.",TRUE
2542,TRUE,5/17/19 9:54,R_3p3HtGxosn7DkWj,31,Female,5,TRUE,3.188,5,0,4,neutral,TRUE,"While Davon is outside, he will think that his desk is cleared of any items.",TRUE
694,TRUE,5/17/19 9:56,R_3e7X1qsBGSFtc0z,25,Male,5,TRUE,3.282,1,0.379,31,competition,TRUE,"While Davon is outside, he will think that his desk is cleared of any items.",TRUE
538,TRUE,5/17/19 9:56,R_3hFohEPRqcobQLL,39,Male,5,TRUE,1.523,3,1.377,9,neutral,TRUE,"While Davon is outside, he will think that his desk is cleared of any items.",TRUE
927,TRUE,5/17/19 10:00,R_ANHgtZ5IMn3pASR,51,Male,5,TRUE,2.582,2,2.686,3,competition,TRUE,"While Davon is outside, he will think that his desk is cleared of any items.",TRUE
959,TRUE,5/17/19 10:02,R_3gNQtn49HYlLPPG,50,Male,5,TRUE,9.727,3,1.866,16,neutral,TRUE,"While Davon is outside, he will think that his desk is cleared of any items.",TRUE
1177,TRUE,5/17/19 10:02,R_VR4roOIDYwkmFzP,29,Male,5,TRUE,2.042,4,0,14,neutral,TRUE,"While Davon is outside, he will think that his desk is cleared of any items.",TRUE
1149,TRUE,5/17/19 10:04,R_25BeFzDdAJzcqDZ,29,Female,5,FALSE,57.551,6,0,6,competition,TRUE,"While Davon is outside, he will think that his desk is cleared of any items.",FALSE
969,TRUE,5/17/19 10:08,R_2th5HiS5s3Ax1db,41,Female,5,TRUE,6.375,7,0,23,neutral,TRUE,"While Davon is outside, he will think that his desk is cleared of any items.",TRUE
654,TRUE,5/17/19 10:10,R_8wsRy97E0N4aXvz,54,Female,5,TRUE,2.217,4,1.277,11,neutral,TRUE,"While Davon is outside, he will think that his desk is cleared of any items.",TRUE
983,TRUE,5/17/19 10:10,R_2vcrydYaKqnbUVk,43,Female,5,TRUE,2.91,7,1.186,12,cooperation,TRUE,"While Davon is outside, he will think that his desk is cleared of any items.",TRUE
697,TRUE,5/17/19 10:12,R_2TmFUEtzKVbGMJI,32,Male,5,TRUE,1.703,1,0.057,31,neutral,TRUE,"While Davon is outside, he will think that his desk is cleared of any items.",TRUE
691,TRUE,5/17/19 10:13,R_3NE5qlSZR4HJk6w,38,Male,5,TRUE,2.437,5,0,10,cooperation,TRUE,"While Davon is outside, he will think that his desk is cleared of any items.",TRUE
925,TRUE,5/17/19 10:14,R_3iQpnARiFuuKZgJ,36,Male,5,TRUE,6.476,3,0,23,neutral,TRUE,"While Davon is outside, he will think that his desk is cleared of any items.",TRUE
843,TRUE,5/17/19 10:15,R_2ZQvRIsPok6g53G,26,Male,5,TRUE,3.327,3,0,13,neutral,TRUE,"While Davon is outside, he will think that his desk is cleared of any items.",TRUE
642,TRUE,5/17/19 10:15,R_1dmFsjzSn6uUgoA,33,Female,5,TRUE,2.091,3,0,7,cooperation,TRUE,"While Davon is outside, he will think that his desk is cleared of any items.",TRUE
1170,TRUE,5/17/19 10:15,R_25sYL5Hw6t1obag,30,Male,5,TRUE,2.11,6,1.461,13,cooperation,TRUE,"While Davon is outside, he will think that his desk is cleared of any items.",TRUE
1663,TRUE,5/17/19 10:18,R_2uwHqFqm0kGjDj9,37,Female,5,TRUE,2.25,5,2.78,2,cooperation,TRUE,"While Davon is outside, he will think that his desk is cleared of any items.",TRUE
1626,TRUE,5/17/19 10:25,R_296cWYz9Rsj5fJz,39,Male,5,TRUE,8.459,1,2.644,28,competition,TRUE,"While Davon is outside, he will think that his desk is cleared of any items.",TRUE
834,TRUE,5/17/19 10:36,R_4G74CmUNmf3f3TH,40,Female,5,TRUE,3.047,2,0,27,competition,TRUE,"While Davon is outside, he will think that his desk is cleared of any items.",TRUE
1791,TRUE,5/17/19 10:37,R_1rGFsBopxeiVpuP,59,Female,5,TRUE,4.054,4,2.796,14,cooperation,TRUE,"While Davon is outside, he will think that his desk is cleared of any items.",TRUE
956,TRUE,5/17/19 10:47,R_10DEoCRvVJVfnmG,36,Male,5,TRUE,5.617,4,4.279,9,neutral,TRUE,"While Davon is outside, he will think that his desk is cleared of any items.",TRUE
1632,TRUE,5/17/19 11:01,R_3CPjgZ22Bx4XNwm,37,Male,5,TRUE,4.577,4,5.835,20,neutral,TRUE,"While Davon is outside, he will think that his desk is cleared of any items.",TRUE
2005,TRUE,5/17/19 11:21,R_2aLEy1YwbU47kEF,66,Male,5,TRUE,31.841,1,2.917,12,cooperation,TRUE,"While Davon is outside, he will think that his desk is cleared of any items.",TRUE
517,TRUE,5/17/19 8:51,R_2vkROjR461UeBcK,31,Female,6,TRUE,2.618,4,1.76,24,neutral,TRUE,"While Trevor is away, he will think that his soup needs more spice.",TRUE
615,TRUE,5/17/19 8:52,R_1r6MMWV7DfFqxpd,42,Male,6,TRUE,1.357,4,0,21,neutral,TRUE,"While Trevor is away, he will think that his soup needs more spice.",TRUE
649,TRUE,5/17/19 8:53,R_25T8irozLCiLVh0,37,Female,6,TRUE,2.234,1,1.066,5,competition,TRUE,"While Trevor is away, he will think that his soup needs more spice.",TRUE
802,TRUE,5/17/19 8:55,R_25zlzmqXGkuMoAy,37,Female,6,TRUE,1.718,5,1.555,5,neutral,TRUE,"While Trevor is away, he will think that his soup needs more spice.",TRUE
824,TRUE,5/17/19 8:56,R_3lJuzEN9AReQ5wu,32,Male,6,TRUE,2.357,3,2.477,15,cooperation,TRUE,"While Trevor is away, he will think that his soup needs more spice.",TRUE
823,TRUE,5/17/19 8:56,R_1OpEbMtZfF51Vcf,36,Male,6,TRUE,2.947,3,0,21,competition,TRUE,"While Trevor is away, he will think that his soup needs more spice.",TRUE
816,TRUE,5/17/19 8:56,R_3R9Nfp2ZRQx5m2K,49,Male,6,TRUE,3.186,2,2.704,6,neutral,TRUE,"While Trevor is away, he will think that his soup needs more spice.",TRUE
891,TRUE,5/17/19 8:57,R_3fjCpZoHRW1A2Ne,26,Female,6,TRUE,1.682,1,0,22,competition,TRUE,"While Trevor is away, he will think that his soup needs more spice.",TRUE
888,TRUE,5/17/19 8:57,R_DwQFzpjRs6OWsVj,57,Male,6,TRUE,2.761,1,0.885,25,competition,TRUE,"While Trevor is away, he will think that his soup needs more spice.",TRUE
921,TRUE,5/17/19 8:58,R_3xGmIO9l4b0xjkB,45,Male,6,TRUE,3.47,1,1.2,25,competition,TRUE,"While Trevor is away, he will think that his soup needs more spice.",TRUE
555,TRUE,5/17/19 8:58,R_1i2GGu5vP49VOSx,33,Female,6,TRUE,1.747,4,1.49,13,cooperation,TRUE,"While Trevor is away, he will think that his soup needs more spice.",TRUE
872,TRUE,5/17/19 8:58,R_3LZJmEfxFNA9QM1,24,Male,6,TRUE,2.406,2,0,30,competition,TRUE,"While Trevor is away, he will think that his soup needs more spice.",TRUE
582,TRUE,5/17/19 8:58,R_6JVr2yclf78Ur7z,40,Male,6,FALSE,1.48,2,0,24,neutral,TRUE,"While Trevor is away, he will think that his soup needs more spice.",FALSE
749,TRUE,5/17/19 8:59,R_2OUvCFq6IOByioY,65,Male,6,TRUE,2.09,1,1.942,16,competition,TRUE,"While Trevor is away, he will think that his soup needs more spice.",TRUE
890,TRUE,5/17/19 8:59,R_3OjBivwNVJgGCFm,60,Female,6,FALSE,14.201,1,2.882,25,competition,TRUE,"While Trevor is away, he will think that his soup needs more spice.",FALSE
960,TRUE,5/17/19 8:59,R_1dgchqMkrwtYRuw,25,Male,6,TRUE,1.899,4,0.968,28,cooperation,TRUE,"While Trevor is away, he will think that his soup needs more spice.",TRUE
951,TRUE,5/17/19 9:00,R_SHwxBm7rrXS6UuJ,60,Female,6,TRUE,3.158,6,1.646,15,cooperation,TRUE,"While Trevor is away, he will think that his soup needs more spice.",TRUE
965,TRUE,5/17/19 9:00,R_1jdGOcwp6nTs8Cm,28,Male,6,TRUE,1.429,4,1.257,31,cooperation,TRUE,"While Trevor is away, he will think that his soup needs more spice.",TRUE
1086,TRUE,5/17/19 9:00,R_3kdfn7V66RfiGJP,49,Male,6,TRUE,5.796,2,0.899,22,competition,TRUE,"While Trevor is away, he will think that his soup needs more spice.",TRUE
1096,TRUE,5/17/19 9:01,R_C8IZCVpfJk9pRex,46,Male,6,TRUE,1.499,3,3.514,6,cooperation,TRUE,"While Trevor is away, he will think that his soup needs more spice.",TRUE
939,TRUE,5/17/19 9:01,R_2ylbMvSHnM4PuIq,31,Male,6,TRUE,2.018,3,0,2,neutral,TRUE,"While Trevor is away, he will think that his soup needs more spice.",TRUE
1234,TRUE,5/17/19 9:02,R_1pS4Yf6fKavO3cv,48,Male,6,TRUE,8.965,3,1.615,5,neutral,TRUE,"While Trevor is away, he will think that his soup needs more spice.",TRUE
1265,TRUE,5/17/19 9:03,R_1oGTEKsFA05S3nG,63,Male,6,TRUE,2.331,3,2.205,28,competition,TRUE,"While Trevor is away, he will think that his soup needs more spice.",TRUE
931,TRUE,5/17/19 9:03,R_3nqkGhiEKj7lACI,37,Male,6,TRUE,1.996,4,0.412,29,neutral,TRUE,"While Trevor is away, he will think that his soup needs more spice.",TRUE
1183,TRUE,5/17/19 9:03,R_2bZdLlIE23PGHei,27,Male,6,TRUE,90.15,1,0.639,8,cooperation,TRUE,"While Trevor is away, he will think that his soup needs more spice.",TRUE
1307,TRUE,5/17/19 9:04,R_2pJG64saaKdTEdF,30,Male,6,TRUE,1.819,2,0,30,competition,TRUE,"While Trevor is away, he will think that his soup needs more spice.",TRUE
1122,TRUE,5/17/19 9:04,R_Wj28Vrunc9JSU01,45,Male,6,TRUE,2.791,1,3.288,10,competition,TRUE,"While Trevor is away, he will think that his soup needs more spice.",TRUE
910,TRUE,5/17/19 9:06,R_24jDzYSpw6orAoF,42,Male,6,TRUE,2.349,4,1.299,29,neutral,TRUE,"While Trevor is away, he will think that his soup needs more spice.",TRUE
1421,TRUE,5/17/19 9:06,R_7WGQFotDexFeJ6V,29,Female,6,TRUE,2.734,1,1.519,13,competition,TRUE,"While Trevor is away, he will think that his soup needs more spice.",TRUE
525,TRUE,5/17/19 9:06,R_3hiuPltAaux0CPe,30,Male,6,TRUE,0.24,6,0,23,competition,TRUE,"While Trevor is away, he will think that his soup needs more spice.",TRUE
1495,TRUE,5/17/19 9:07,R_1H8EPfrxw1tw3uT,28,Male,6,FALSE,2.293,4,0.716,19,neutral,TRUE,"While Trevor is away, he will think that his soup needs more spice.",FALSE
689,TRUE,5/17/19 9:10,R_3qIIkYISe34fYTW,30,Male,6,TRUE,0.69,5,0,5,neutral,TRUE,"While Trevor is away, he will think that his soup needs more spice.",TRUE
979,TRUE,5/17/19 9:13,R_3Hk4VqEtJFuflJG,30,Male,6,TRUE,7.164,3,4.665,12,cooperation,TRUE,"While Trevor is away, he will think that his soup needs more spice.",TRUE
554,TRUE,5/17/19 9:13,R_3iwAo9G4BlbfxMT,36,Female,6,TRUE,1.601,4,2.346,2,cooperation,TRUE,"While Trevor is away, he will think that his soup needs more spice.",TRUE
1539,TRUE,5/17/19 9:13,R_uwZWXUzmEJ929yx,26,Male,6,TRUE,4.127,7,1.568,17,cooperation,TRUE,"While Trevor is away, he will think that his soup needs more spice.",TRUE
1193,TRUE,5/17/19 9:14,R_yKrxbqBtaOqkkq5,31,Male,6,TRUE,1.757,2,0.256,29,competition,TRUE,"While Trevor is away, he will think that his soup needs more spice.",TRUE
957,TRUE,5/17/19 9:14,R_1fgdqRVxewCWKBK,45,Male,6,TRUE,2.35,5,2.316,28,cooperation,TRUE,"While Trevor is away, he will think that his soup needs more spice.",TRUE
1624,TRUE,5/17/19 9:15,R_27qhgEOUWt1ih9T,52,Female,6,TRUE,5.53,6,0,16,cooperation,TRUE,"While Trevor is away, he will think that his soup needs more spice.",TRUE
1607,TRUE,5/17/19 9:17,R_qJhne5qHTvnA7PX,35,Female,6,TRUE,5.109,6,0.824,6,neutral,TRUE,"While Trevor is away, he will think that his soup needs more spice.",TRUE
721,TRUE,5/17/19 9:18,R_2xRveXWptVzNKax,38,Male,6,TRUE,2.098,6,0,3,cooperation,TRUE,"While Trevor is away, he will think that his soup needs more spice.",TRUE
1547,TRUE,5/17/19 9:19,R_1poPVjQ9yIaHj1a,23,Male,6,TRUE,4.075,4,1.398,12,neutral,TRUE,"While Trevor is away, he will think that his soup needs more spice.",TRUE
601,TRUE,5/17/19 9:20,R_1EX4utjEpf5jXSr,29,Male,6,TRUE,2.891,1,0,24,competition,TRUE,"While Trevor is away, he will think that his soup needs more spice.",TRUE
1711,TRUE,5/17/19 9:21,R_ZLcGge8RHZkT1WF,46,Female,6,TRUE,4.474,1,0,1,competition,TRUE,"While Trevor is away, he will think that his soup needs more spice.",TRUE
2306,TRUE,5/17/19 9:21,R_pAvU65MY7pjtBRf,33,Male,6,FALSE,14.614,1,2.54,31,competition,TRUE,"While Trevor is away, he will think that his soup needs more spice.",FALSE
715,TRUE,5/17/19 9:22,R_2QFlghnGSCTBnW5,32,Male,6,TRUE,2.447,1,0,16,competition,TRUE,"While Trevor is away, he will think that his soup needs more spice.",TRUE
636,TRUE,5/17/19 9:22,R_2YLESYn9rXIXboZ,33,Female,6,TRUE,1.958,3,0,29,neutral,TRUE,"While Trevor is away, he will think that his soup needs more spice.",TRUE
1324,TRUE,5/17/19 9:23,R_2w6T9qpjVHCU9zO,42,Male,6,TRUE,9.476,1,0.873,3,competition,TRUE,"While Trevor is away, he will think that his soup needs more spice.",TRUE
482,TRUE,5/17/19 9:24,R_1jHOXEBJiSjTPnk,32,Male,6,TRUE,0.734,6,0,20,cooperation,TRUE,"While Trevor is away, he will think that his soup needs more spice.",TRUE
2548,TRUE,5/17/19 9:24,R_xim6y3PB8NIjgQ1,28,Male,6,TRUE,18.104,6,0,29,competition,TRUE,"While Trevor is away, he will think that his soup needs more spice.",TRUE
2013,TRUE,5/17/19 9:25,R_10Cqoo6FWpNqZKQ,28,Female,6,TRUE,19.274,5,0,30,competition,TRUE,"While Trevor is away, he will think that his soup needs more spice.",TRUE
816,TRUE,5/17/19 9:26,R_RrTB0INEzTxvF7j,29,Female,6,TRUE,2.048,2,0.892,23,neutral,TRUE,"While Trevor is away, he will think that his soup needs more spice.",TRUE
614,TRUE,5/17/19 9:26,R_3qOlYFD2TjwT7Eh,24,Male,6,TRUE,1.278,4,0,20,neutral,TRUE,"While Trevor is away, he will think that his soup needs more spice.",TRUE
946,TRUE,5/17/19 9:27,R_1nSYlT2gcb4N3Wd,26,Female,6,TRUE,1.455,7,0.454,30,cooperation,TRUE,"While Trevor is away, he will think that his soup needs more spice.",TRUE
1288,TRUE,5/17/19 9:27,R_2Ybu5kDQPPJglFf,51,Male,6,FALSE,4.063,5,1.376,18,cooperation,TRUE,"While Trevor is away, he will think that his soup needs more spice.",FALSE
1145,TRUE,5/17/19 9:29,R_1IbCKbaB949UZys,29,Male,6,FALSE,0,4,0,20,neutral,TRUE,"While Trevor is away, he will think that his soup needs more spice.",FALSE
652,TRUE,5/17/19 9:30,R_1l9LDHJGUsrvvB4,33,Male,6,FALSE,1.801,3,1.413,13,competition,TRUE,"While Trevor is away, he will think that his soup needs more spice.",FALSE
698,TRUE,5/17/19 9:30,R_1pWZFZXQRwwCFLB,29,Female,6,FALSE,4.195,5,1.042,4,cooperation,TRUE,"While Trevor is away, he will think that his soup needs more spice.",FALSE
1231,TRUE,5/17/19 9:32,R_3PT40D7GaVX0Xec,34,Female,6,TRUE,2.347,1,0.593,10,competition,TRUE,"While Trevor is away, he will think that his soup needs more spice.",TRUE
1370,TRUE,5/17/19 9:32,R_Y3nV6ylcEp2qNuF,29,Female,6,TRUE,1.779,6,0,7,cooperation,TRUE,"While Trevor is away, he will think that his soup needs more spice.",TRUE
1971,TRUE,5/17/19 9:32,R_1dH0W256QCwYG0H,28,Male,6,TRUE,4.137,3,0,12,neutral,TRUE,"While Trevor is away, he will think that his soup needs more spice.",TRUE
481,TRUE,5/17/19 9:32,R_2TZrkHVqXMzP6e4,30,Male,6,TRUE,0.898,3,1.399,24,neutral,TRUE,"While Trevor is away, he will think that his soup needs more spice.",TRUE
743,TRUE,5/17/19 9:33,R_3PoGk1pG4cOmmab,40,Female,6,FALSE,0.483,5,0,29,competition,TRUE,"While Trevor is away, he will think that his soup needs more spice.",FALSE
501,TRUE,5/17/19 9:33,R_3jVBxyvhCUzwIow,23,Male,6,FALSE,3.093,1,0,25,competition,TRUE,"While Trevor is away, he will think that his soup needs more spice.",FALSE
1042,TRUE,5/17/19 9:34,R_1eJliyhIwosYnom,25,Male,6,TRUE,0,6,0.139,11,cooperation,TRUE,"While Trevor is away, he will think that his soup needs more spice.",TRUE
2934,TRUE,5/17/19 9:34,R_1NypHBPXNvJqSD0,28,Male,6,FALSE,0.999,4,0.603,22,neutral,TRUE,"While Trevor is away, he will think that his soup needs more spice.",FALSE
671,TRUE,5/17/19 9:37,R_799RAZOc9qEvsqt,29,Male,6,TRUE,1.767,3,0.784,19,neutral,TRUE,"While Trevor is away, he will think that his soup needs more spice.",TRUE
2612,TRUE,5/17/19 9:40,R_3aU3FqtlIpBbIhX,28,Male,6,FALSE,0.807,4,0,14,cooperation,TRUE,"While Trevor is away, he will think that his soup needs more spice.",FALSE
3516,TRUE,5/17/19 9:41,R_2ATp8rSYhHaj7zE,28,Male,6,TRUE,121.319,5,0,3,competition,TRUE,"While Trevor is away, he will think that his soup needs more spice.",TRUE
716,TRUE,5/17/19 9:42,R_33a0MDUdSG8RINl,28,Female,6,TRUE,1.555,3,1.387,14,neutral,TRUE,"While Trevor is away, he will think that his soup needs more spice.",TRUE
474,TRUE,5/17/19 9:44,R_1SboHeKfgnz7fr3,29,Female,6,FALSE,1.349,1,0.35,29,competition,TRUE,"While Trevor is away, he will think that his soup needs more spice.",FALSE
1006,TRUE,5/17/19 9:50,R_2dBmN7j0yqFAPj4,41,Male,6,TRUE,3.799,4,2.332,6,cooperation,TRUE,"While Trevor is away, he will think that his soup needs more spice.",TRUE
2542,TRUE,5/17/19 9:54,R_3p3HtGxosn7DkWj,31,Female,6,TRUE,3.525,1,1.478,21,competition,TRUE,"While Trevor is away, he will think that his soup needs more spice.",TRUE
694,TRUE,5/17/19 9:56,R_3e7X1qsBGSFtc0z,25,Male,6,TRUE,2.635,3,1.779,22,neutral,TRUE,"While Trevor is away, he will think that his soup needs more spice.",TRUE
538,TRUE,5/17/19 9:56,R_3hFohEPRqcobQLL,39,Male,6,TRUE,1.282,3,0.504,28,neutral,TRUE,"While Trevor is away, he will think that his soup needs more spice.",TRUE
927,TRUE,5/17/19 10:00,R_ANHgtZ5IMn3pASR,51,Male,6,TRUE,2.683,2,2.115,5,competition,TRUE,"While Trevor is away, he will think that his soup needs more spice.",TRUE
959,TRUE,5/17/19 10:02,R_3gNQtn49HYlLPPG,50,Male,6,TRUE,3.188,1,1.05,9,competition,TRUE,"While Trevor is away, he will think that his soup needs more spice.",TRUE
1177,TRUE,5/17/19 10:02,R_VR4roOIDYwkmFzP,29,Male,6,TRUE,2.234,3,0,15,cooperation,TRUE,"While Trevor is away, he will think that his soup needs more spice.",TRUE
1149,TRUE,5/17/19 10:04,R_25BeFzDdAJzcqDZ,29,Female,6,TRUE,3.949,6,0,13,cooperation,TRUE,"While Trevor is away, he will think that his soup needs more spice.",TRUE
969,TRUE,5/17/19 10:08,R_2th5HiS5s3Ax1db,41,Female,6,TRUE,1.643,7,0,17,neutral,TRUE,"While Trevor is away, he will think that his soup needs more spice.",TRUE
654,TRUE,5/17/19 10:10,R_8wsRy97E0N4aXvz,54,Female,6,FALSE,2.654,1,1.139,3,competition,TRUE,"While Trevor is away, he will think that his soup needs more spice.",FALSE
983,TRUE,5/17/19 10:10,R_2vcrydYaKqnbUVk,43,Female,6,TRUE,5.529,1,0,7,competition,TRUE,"While Trevor is away, he will think that his soup needs more spice.",TRUE
697,TRUE,5/17/19 10:12,R_2TmFUEtzKVbGMJI,32,Male,6,FALSE,2.619,1,0.46,17,competition,TRUE,"While Trevor is away, he will think that his soup needs more spice.",FALSE
691,TRUE,5/17/19 10:13,R_3NE5qlSZR4HJk6w,38,Male,6,TRUE,4.625,6,0,24,cooperation,TRUE,"While Trevor is away, he will think that his soup needs more spice.",TRUE
925,TRUE,5/17/19 10:14,R_3iQpnARiFuuKZgJ,36,Male,6,TRUE,1.635,3,0,9,cooperation,TRUE,"While Trevor is away, he will think that his soup needs more spice.",TRUE
843,TRUE,5/17/19 10:15,R_2ZQvRIsPok6g53G,26,Male,6,TRUE,2.19,5,1.46,5,cooperation,TRUE,"While Trevor is away, he will think that his soup needs more spice.",TRUE
642,TRUE,5/17/19 10:15,R_1dmFsjzSn6uUgoA,33,Female,6,TRUE,1.785,2,1.308,18,cooperation,TRUE,"While Trevor is away, he will think that his soup needs more spice.",TRUE
1170,TRUE,5/17/19 10:15,R_25sYL5Hw6t1obag,30,Male,6,TRUE,1.985,4,0,17,neutral,TRUE,"While Trevor is away, he will think that his soup needs more spice.",TRUE
1663,TRUE,5/17/19 10:18,R_2uwHqFqm0kGjDj9,37,Female,6,TRUE,1.53,3,1.534,31,neutral,TRUE,"While Trevor is away, he will think that his soup needs more spice.",TRUE
1626,TRUE,5/17/19 10:25,R_296cWYz9Rsj5fJz,39,Male,6,FALSE,3.125,3,4.172,21,cooperation,TRUE,"While Trevor is away, he will think that his soup needs more spice.",FALSE
834,TRUE,5/17/19 10:36,R_4G74CmUNmf3f3TH,40,Female,6,TRUE,2.114,1,0,17,competition,TRUE,"While Trevor is away, he will think that his soup needs more spice.",TRUE
1791,TRUE,5/17/19 10:37,R_1rGFsBopxeiVpuP,59,Female,6,TRUE,6.122,4,9.133,21,cooperation,TRUE,"While Trevor is away, he will think that his soup needs more spice.",TRUE
956,TRUE,5/17/19 10:47,R_10DEoCRvVJVfnmG,36,Male,6,TRUE,4.626,1,0,16,competition,TRUE,"While Trevor is away, he will think that his soup needs more spice.",TRUE
1632,TRUE,5/17/19 11:01,R_3CPjgZ22Bx4XNwm,37,Male,6,TRUE,4.199,3,2.658,23,neutral,TRUE,"While Trevor is away, he will think that his soup needs more spice.",TRUE
2005,TRUE,5/17/19 11:21,R_2aLEy1YwbU47kEF,66,Male,6,TRUE,5.632,2,4.509,24,neutral,TRUE,"While Trevor is away, he will think that his soup needs more spice.",TRUE
517,TRUE,5/17/19 8:51,R_2vkROjR461UeBcK,31,Female,7,FALSE,1.428,6,0,25,cooperation,FALSE,"While Paula is in class, she will think that the locker is locked.",TRUE
615,TRUE,5/17/19 8:52,R_1r6MMWV7DfFqxpd,42,Male,7,FALSE,1.65,6,1.795,29,cooperation,FALSE,"While Paula is in class, she will think that the locker is locked.",TRUE
649,TRUE,5/17/19 8:53,R_25T8irozLCiLVh0,37,Female,7,FALSE,1.818,1,1.444,11,competition,FALSE,"While Paula is in class, she will think that the locker is locked.",TRUE
802,TRUE,5/17/19 8:55,R_25zlzmqXGkuMoAy,37,Female,7,TRUE,3.003,7,0,8,cooperation,FALSE,"While Paula is in class, she will think that the locker is locked.",FALSE
824,TRUE,5/17/19 8:56,R_3lJuzEN9AReQ5wu,32,Male,7,FALSE,2.401,6,1.518,25,cooperation,FALSE,"While Paula is in class, she will think that the locker is locked.",TRUE
823,TRUE,5/17/19 8:56,R_1OpEbMtZfF51Vcf,36,Male,7,FALSE,1.298,3,0.471,9,cooperation,FALSE,"While Paula is in class, she will think that the locker is locked.",TRUE
816,TRUE,5/17/19 8:56,R_3R9Nfp2ZRQx5m2K,49,Male,7,FALSE,2.834,6,1.17,21,neutral,FALSE,"While Paula is in class, she will think that the locker is locked.",TRUE
891,TRUE,5/17/19 8:57,R_3fjCpZoHRW1A2Ne,26,Female,7,FALSE,2.451,6,0,9,cooperation,FALSE,"While Paula is in class, she will think that the locker is locked.",TRUE
888,TRUE,5/17/19 8:57,R_DwQFzpjRs6OWsVj,57,Male,7,FALSE,2.723,7,1.245,18,cooperation,FALSE,"While Paula is in class, she will think that the locker is locked.",TRUE
921,TRUE,5/17/19 8:58,R_3xGmIO9l4b0xjkB,45,Male,7,FALSE,3.102,6,2.278,21,cooperation,FALSE,"While Paula is in class, she will think that the locker is locked.",TRUE
555,TRUE,5/17/19 8:58,R_1i2GGu5vP49VOSx,33,Female,7,FALSE,1.742,4,1.153,28,neutral,FALSE,"While Paula is in class, she will think that the locker is locked.",TRUE
872,TRUE,5/17/19 8:58,R_3LZJmEfxFNA9QM1,24,Male,7,FALSE,1.523,7,0,15,neutral,FALSE,"While Paula is in class, she will think that the locker is locked.",TRUE
582,TRUE,5/17/19 8:58,R_6JVr2yclf78Ur7z,40,Male,7,FALSE,3.326,5,0,1,cooperation,FALSE,"While Paula is in class, she will think that the locker is locked.",TRUE
749,TRUE,5/17/19 8:59,R_2OUvCFq6IOByioY,65,Male,7,FALSE,3.571,1,0,1,competition,FALSE,"While Paula is in class, she will think that the locker is locked.",TRUE
890,TRUE,5/17/19 8:59,R_3OjBivwNVJgGCFm,60,Female,7,FALSE,2.797,1,0.91,23,competition,FALSE,"While Paula is in class, she will think that the locker is locked.",TRUE
960,TRUE,5/17/19 8:59,R_1dgchqMkrwtYRuw,25,Male,7,FALSE,1.903,4,0.676,27,neutral,FALSE,"While Paula is in class, she will think that the locker is locked.",TRUE
951,TRUE,5/17/19 9:00,R_SHwxBm7rrXS6UuJ,60,Female,7,FALSE,3.618,1,2.181,9,competition,FALSE,"While Paula is in class, she will think that the locker is locked.",TRUE
965,TRUE,5/17/19 9:00,R_1jdGOcwp6nTs8Cm,28,Male,7,FALSE,1.776,6,1.367,22,neutral,FALSE,"While Paula is in class, she will think that the locker is locked.",TRUE
1086,TRUE,5/17/19 9:00,R_3kdfn7V66RfiGJP,49,Male,7,FALSE,2.969,6,4.9,3,cooperation,FALSE,"While Paula is in class, she will think that the locker is locked.",TRUE
1096,TRUE,5/17/19 9:01,R_C8IZCVpfJk9pRex,46,Male,7,FALSE,3.747,1,0,28,competition,FALSE,"While Paula is in class, she will think that the locker is locked.",TRUE
939,TRUE,5/17/19 9:01,R_2ylbMvSHnM4PuIq,31,Male,7,FALSE,1.495,6,0,11,cooperation,FALSE,"While Paula is in class, she will think that the locker is locked.",TRUE
1234,TRUE,5/17/19 9:02,R_1pS4Yf6fKavO3cv,48,Male,7,FALSE,1.499,1,0,13,competition,FALSE,"While Paula is in class, she will think that the locker is locked.",TRUE
1265,TRUE,5/17/19 9:03,R_1oGTEKsFA05S3nG,63,Male,7,FALSE,2.918,3,7.03,18,competition,FALSE,"While Paula is in class, she will think that the locker is locked.",TRUE
931,TRUE,5/17/19 9:03,R_3nqkGhiEKj7lACI,37,Male,7,FALSE,2.728,1,1.032,11,competition,FALSE,"While Paula is in class, she will think that the locker is locked.",TRUE
1183,TRUE,5/17/19 9:03,R_2bZdLlIE23PGHei,27,Male,7,FALSE,10.049,1,0.367,22,cooperation,FALSE,"While Paula is in class, she will think that the locker is locked.",TRUE
1307,TRUE,5/17/19 9:04,R_2pJG64saaKdTEdF,30,Male,7,FALSE,4.152,3,0,7,competition,FALSE,"While Paula is in class, she will think that the locker is locked.",TRUE
1122,TRUE,5/17/19 9:04,R_Wj28Vrunc9JSU01,45,Male,7,FALSE,10.505,6,2.209,1,neutral,FALSE,"While Paula is in class, she will think that the locker is locked.",TRUE
910,TRUE,5/17/19 9:06,R_24jDzYSpw6orAoF,42,Male,7,FALSE,2.05,7,0.778,10,cooperation,FALSE,"While Paula is in class, she will think that the locker is locked.",TRUE
1421,TRUE,5/17/19 9:06,R_7WGQFotDexFeJ6V,29,Female,7,FALSE,2.96,4,1.632,7,neutral,FALSE,"While Paula is in class, she will think that the locker is locked.",TRUE
525,TRUE,5/17/19 9:06,R_3hiuPltAaux0CPe,30,Male,7,FALSE,0.861,5,0,10,cooperation,FALSE,"While Paula is in class, she will think that the locker is locked.",TRUE
1495,TRUE,5/17/19 9:07,R_1H8EPfrxw1tw3uT,28,Male,7,TRUE,0.922,5,0.265,25,neutral,FALSE,"While Paula is in class, she will think that the locker is locked.",FALSE
689,TRUE,5/17/19 9:10,R_3qIIkYISe34fYTW,30,Male,7,TRUE,1.058,4,0,17,competition,FALSE,"While Paula is in class, she will think that the locker is locked.",FALSE
979,TRUE,5/17/19 9:13,R_3Hk4VqEtJFuflJG,30,Male,7,FALSE,1.91,7,3.146,10,cooperation,FALSE,"While Paula is in class, she will think that the locker is locked.",TRUE
554,TRUE,5/17/19 9:13,R_3iwAo9G4BlbfxMT,36,Female,7,FALSE,2.956,5,1.285,3,neutral,FALSE,"While Paula is in class, she will think that the locker is locked.",TRUE
1539,TRUE,5/17/19 9:13,R_uwZWXUzmEJ929yx,26,Male,7,FALSE,2.288,7,0,24,neutral,FALSE,"While Paula is in class, she will think that the locker is locked.",TRUE
1193,TRUE,5/17/19 9:14,R_yKrxbqBtaOqkkq5,31,Male,7,FALSE,1.941,5,2.28,20,cooperation,FALSE,"While Paula is in class, she will think that the locker is locked.",TRUE
957,TRUE,5/17/19 9:14,R_1fgdqRVxewCWKBK,45,Male,7,FALSE,2.388,1,1.641,13,competition,FALSE,"While Paula is in class, she will think that the locker is locked.",TRUE
1624,TRUE,5/17/19 9:15,R_27qhgEOUWt1ih9T,52,Female,7,FALSE,4.378,2,3.184,1,competition,FALSE,"While Paula is in class, she will think that the locker is locked.",TRUE
1607,TRUE,5/17/19 9:17,R_qJhne5qHTvnA7PX,35,Female,7,TRUE,4.032,6,0,15,cooperation,FALSE,"While Paula is in class, she will think that the locker is locked.",FALSE
