Duration,Finished,RecordedDate,ResponseId,Age,Gender,item,TF,TF_RT,Nice,Nice_RT,trial,condition,Answer,Question,correct
579,TRUE,5/14/19 15:29,R_2DYMxUdsqW7urie,NA,Male,1,FALSE,1.093,4,1.341,25,competition,TRUE,"While Sally is away, she will think that her ball is in the box.",FALSE
579,TRUE,5/14/19 15:29,R_3nMfbYgmeMsZrvT,29,Male,1,TRUE,2.126,1,0.669,7,competition,TRUE,"While Sally is away, she will think that her ball is in the box.",TRUE
551,TRUE,5/14/19 15:30,R_1Q3kb3QHK7VyE5w,30,Male,1,TRUE,2.541,4,0.461,5,competition,TRUE,"While Sally is away, she will think that her ball is in the box.",TRUE
733,TRUE,5/14/19 15:30,R_3PnHRjcnKxu90Zm,25,Male,1,TRUE,3.431,3,1.499,22,neutral,TRUE,"While Sally is away, she will think that her ball is in the box.",TRUE
680,TRUE,5/14/19 15:31,R_1od3IZBBcQ8uIKW,35,Male,1,TRUE,1.98,4,0.857,26,cooperation,TRUE,"While Sally is away, she will think that her ball is in the box.",TRUE
768,TRUE,5/14/19 15:31,R_29n0nxx0pYvnTbf,NA,Female,1,TRUE,1.901,2,0,1,competition,TRUE,"While Sally is away, she will think that her ball is in the box.",TRUE
775,TRUE,5/14/19 15:31,R_vDoFAJWn3ficlc5,30,Female,1,TRUE,28.163,7,0.659,25,competition,TRUE,"While Sally is away, she will think that her ball is in the box.",TRUE
535,TRUE,5/14/19 15:31,R_1P5IiJLkPGRcfiq,25,Male,1,TRUE,1.713,4,0,6,neutral,TRUE,"While Sally is away, she will think that her ball is in the box.",TRUE
640,TRUE,5/14/19 15:33,R_3RkhbbvCfn0cyo8,33,Female,1,FALSE,0.861,5,0.399,28,neutral,TRUE,"While Sally is away, she will think that her ball is in the box.",FALSE
834,TRUE,5/14/19 15:35,R_6V9NBht1dZxbU2J,27,Male,1,TRUE,0.987,4,0,17,competition,TRUE,"While Sally is away, she will think that her ball is in the box.",TRUE
930,TRUE,5/14/19 15:35,R_UFRVby7h8t7VjHz,28,Male,1,TRUE,1.52,4,0.715,28,competition,TRUE,"While Sally is away, she will think that her ball is in the box.",TRUE
1038,TRUE,5/14/19 15:36,R_1N3vJDGAXY0GM2n,32,Female,1,TRUE,3.522,2,1.724,26,competition,TRUE,"While Sally is away, she will think that her ball is in the box.",TRUE
733,TRUE,5/14/19 15:36,R_3lVvCsyyISloSBp,50,Female,1,FALSE,2.46,NA,0,13,neutral,TRUE,"While Sally is away, she will think that her ball is in the box.",FALSE
906,TRUE,5/14/19 15:37,R_qVfrw0StuNHWayZ,25,Female,1,FALSE,0,4,0,10,neutral,TRUE,"While Sally is away, she will think that her ball is in the box.",FALSE
1003,TRUE,5/14/19 15:38,R_2BaL8D4IySmLflo,69,Female,1,TRUE,6.799,4,0,21,neutral,TRUE,"While Sally is away, she will think that her ball is in the box.",TRUE
597,TRUE,5/14/19 15:39,R_1Pc9cOk0l6A0h8S,28,Female,1,FALSE,1.764,1,0.64,30,competition,TRUE,"While Sally is away, she will think that her ball is in the box.",FALSE
1255,TRUE,5/14/19 15:40,R_2yjBy07pV5aTodV,61,Male,1,TRUE,6.92,4,8.639,2,cooperation,TRUE,"While Sally is away, she will think that her ball is in the box.",TRUE
920,TRUE,5/14/19 15:40,R_C4CAtlo7vvfNObD,35,Male,1,TRUE,2.659,4,0,21,competition,TRUE,"While Sally is away, she will think that her ball is in the box.",TRUE
1341,TRUE,5/14/19 15:41,R_1JXGXB9uKyABYsi,33,Male,1,TRUE,3.207,3,2.121,12,neutral,TRUE,"While Sally is away, she will think that her ball is in the box.",TRUE
1333,TRUE,5/14/19 15:41,R_22LCMPNC6mifHiK,45,Male,1,FALSE,0.909,6,0,18,competition,TRUE,"While Sally is away, she will think that her ball is in the box.",FALSE
1083,TRUE,5/14/19 15:42,R_25ZcUMpbiKpeV3s,32,Male,1,TRUE,4.828,3,0.937,20,competition,TRUE,"While Sally is away, she will think that her ball is in the box.",TRUE
1175,TRUE,5/14/19 15:44,R_aY6g2ByMB4qKO2J,40,Male,1,FALSE,2.821,2,2.356,3,competition,TRUE,"While Sally is away, she will think that her ball is in the box.",FALSE
507,TRUE,5/14/19 15:45,R_2lvv85ZKMt5KE25,30,Male,1,TRUE,1.642,7,0,4,cooperation,TRUE,"While Sally is away, she will think that her ball is in the box.",TRUE
757,TRUE,5/14/19 15:45,R_3kol2JCP8rpesQJ,21,Male,1,FALSE,5.403,2,0,2,neutral,TRUE,"While Sally is away, she will think that her ball is in the box.",FALSE
1186,TRUE,5/14/19 15:46,R_2vcWnChzOZMfBPi,56,Male,1,TRUE,2.192,4,14.408,18,cooperation,TRUE,"While Sally is away, she will think that her ball is in the box.",TRUE
369,TRUE,5/14/19 15:46,R_33qk6fuoaenveiB,29,Male,1,TRUE,0.948,2,0,9,neutral,TRUE,"While Sally is away, she will think that her ball is in the box.",TRUE
357,TRUE,5/14/19 15:47,R_eVu78PIuCrJOPOp,27,Male,1,TRUE,0.74,3,0.321,20,neutral,TRUE,"While Sally is away, she will think that her ball is in the box.",TRUE
1545,TRUE,5/14/19 15:47,R_27rIoDYd95Xzofm,33,Male,1,TRUE,7.5,6,0,19,cooperation,TRUE,"While Sally is away, she will think that her ball is in the box.",TRUE
1106,TRUE,5/14/19 15:48,R_1kFkiOFrtO9QsaN,27,Male,1,TRUE,3.213,1,2.174,9,competition,TRUE,"While Sally is away, she will think that her ball is in the box.",TRUE
876,TRUE,5/14/19 15:48,R_1obBfD0fnpJu1qc,30,Male,1,TRUE,0.575,3,0,21,competition,TRUE,"While Sally is away, she will think that her ball is in the box.",TRUE
1128,TRUE,5/14/19 15:48,R_2f1mnoVb9rkUCDM,58,Male,1,TRUE,3.574,3,4.356,4,competition,TRUE,"While Sally is away, she will think that her ball is in the box.",TRUE
1265,TRUE,5/14/19 15:50,R_3ipQYCn84x6SPFy,55,Female,1,FALSE,8.022,6,0.99,10,cooperation,TRUE,"While Sally is away, she will think that her ball is in the box.",FALSE
1377,TRUE,5/14/19 15:50,R_CetIIdJkszskoSJ,35,Male,1,TRUE,2,4,2.198,3,competition,TRUE,"While Sally is away, she will think that her ball is in the box.",TRUE
907,TRUE,5/14/19 15:50,R_23WxnjIymLBMOLc,27,Female,1,FALSE,42.325,3,1.874,5,competition,TRUE,"While Sally is away, she will think that her ball is in the box.",FALSE
959,TRUE,5/14/19 15:51,R_0D8gcBPEOLTpuHT,28,Male,1,FALSE,0.2,6,0,30,competition,TRUE,"While Sally is away, she will think that her ball is in the box.",FALSE
549,TRUE,5/14/19 15:52,R_1r6LGa91FM9pKJd,31,Male,1,TRUE,0.944,3,0,6,neutral,TRUE,"While Sally is away, she will think that her ball is in the box.",TRUE
1411,TRUE,5/14/19 15:54,R_1Q4JlHjSTfYLh6W,32,Male,1,TRUE,7.962,6,0,21,cooperation,TRUE,"While Sally is away, she will think that her ball is in the box.",TRUE
755,TRUE,5/14/19 15:56,R_2OZMbYgsYCsUxuq,33,Male,1,TRUE,2.247,6,0,5,cooperation,TRUE,"While Sally is away, she will think that her ball is in the box.",TRUE
1151,TRUE,5/14/19 15:56,R_1Iy3JZKjpKtphoe,28,Male,1,TRUE,2.961,7,0.283,5,cooperation,TRUE,"While Sally is away, she will think that her ball is in the box.",TRUE
859,TRUE,5/14/19 15:56,R_BJK0CCdFIggs2Ih,31,Male,1,TRUE,2.998,4,0.847,18,neutral,TRUE,"While Sally is away, she will think that her ball is in the box.",TRUE
1607,TRUE,5/14/19 15:58,R_1CraoytTQtSdFMe,59,Female,1,TRUE,2.458,7,1.538,8,cooperation,TRUE,"While Sally is away, she will think that her ball is in the box.",TRUE
1419,TRUE,5/14/19 16:00,R_1DOph3TS2kLMloH,60,Male,1,TRUE,4.559,5,0,6,neutral,TRUE,"While Sally is away, she will think that her ball is in the box.",TRUE
892,TRUE,5/14/19 16:02,R_WCYTKarVRY7loJj,59,Male,1,TRUE,4.502,4,0,1,neutral,TRUE,"While Sally is away, she will think that her ball is in the box.",TRUE
362,TRUE,5/14/19 16:02,R_1jJLTVgtKZtgbZc,30,Female,1,FALSE,1.105,4,0.577,14,neutral,TRUE,"While Sally is away, she will think that her ball is in the box.",FALSE
1549,TRUE,5/14/19 16:04,R_1gC7uL1hTOZoxLQ,30,Male,1,TRUE,2.114,6,1.253,15,cooperation,TRUE,"While Sally is away, she will think that her ball is in the box.",TRUE
777,TRUE,5/14/19 16:06,R_2CB9I8sjBPestnU,32,Male,1,TRUE,1.247,7,1.054,9,cooperation,TRUE,"While Sally is away, she will think that her ball is in the box.",TRUE
558,TRUE,5/14/19 16:07,R_w6oo2lORlkkwg6J,52,Male,1,TRUE,1.807,4,1.165,30,cooperation,TRUE,"While Sally is away, she will think that her ball is in the box.",TRUE
842,TRUE,5/14/19 16:07,R_1QFUsHLgI1PKzdX,33,Other,1,FALSE,3.661,5,0,27,cooperation,TRUE,"While Sally is away, she will think that her ball is in the box.",FALSE
994,TRUE,5/14/19 16:08,R_2w1zXkAmwMRLqbU,55,Male,1,TRUE,3.963,6,1.131,26,cooperation,TRUE,"While Sally is away, she will think that her ball is in the box.",TRUE
526,TRUE,5/14/19 16:09,R_yVojdxA4Qc2SM6Z,22,Female,1,TRUE,0.884,1,0.495,27,competition,TRUE,"While Sally is away, she will think that her ball is in the box.",TRUE
1530,TRUE,5/14/19 16:12,R_2uCgFaRmHUDhIf7,31,Male,1,TRUE,10.55,1,0,20,competition,TRUE,"While Sally is away, she will think that her ball is in the box.",TRUE
697,TRUE,5/14/19 16:12,R_22WEl3oKB1yJlqu,32,Male,1,TRUE,2.644,3,0,18,competition,TRUE,"While Sally is away, she will think that her ball is in the box.",TRUE
1231,TRUE,5/14/19 16:12,R_2VQh51rUDdZ9Jjj,34,Female,1,FALSE,5.582,1,0,14,competition,TRUE,"While Sally is away, she will think that her ball is in the box.",FALSE
1236,TRUE,5/14/19 16:16,R_2Etzf5ukQIjbtJC,33,Male,1,TRUE,6.184,1,0,2,competition,TRUE,"While Sally is away, she will think that her ball is in the box.",TRUE
716,TRUE,5/14/19 16:17,R_2aaaG4DS3K5xQKV,38,Male,1,TRUE,2.273,4,3.509,14,neutral,TRUE,"While Sally is away, she will think that her ball is in the box.",TRUE
281,TRUE,5/14/19 16:18,R_1IaTnBTvxnhMUS8,24,Female,1,TRUE,0.497,4,0.023,6,neutral,TRUE,"While Sally is away, she will think that her ball is in the box.",TRUE
611,TRUE,5/14/19 16:23,R_su4ao8Mrwhsf4f7,30,Male,1,TRUE,1.501,2,0.481,26,competition,TRUE,"While Sally is away, she will think that her ball is in the box.",TRUE
1915,TRUE,5/14/19 16:24,R_3PREu7zW7lf39D8,26,Male,1,TRUE,1.493,4,0,23,competition,TRUE,"While Sally is away, she will think that her ball is in the box.",TRUE
1626,TRUE,5/14/19 16:26,R_2EzAdUE0tbjp8v7,37,Male,1,TRUE,41.59,7,3.032,14,neutral,TRUE,"While Sally is away, she will think that her ball is in the box.",TRUE
552,TRUE,5/14/19 16:26,R_QfGskrDfHKZWl2h,20,Male,1,FALSE,3.06,2,0.599,14,competition,TRUE,"While Sally is away, she will think that her ball is in the box.",FALSE
990,TRUE,5/14/19 16:29,R_3NXpuQFQ4bHgQRE,33,Female,1,TRUE,7.453,4,1.011,10,competition,TRUE,"While Sally is away, she will think that her ball is in the box.",TRUE
1114,TRUE,5/14/19 16:30,R_AyCN2EJ5lU2nyYF,43,Female,1,TRUE,2.733,4,1.271,13,neutral,TRUE,"While Sally is away, she will think that her ball is in the box.",TRUE
713,TRUE,5/14/19 16:31,R_uftWlqmgubaOJ69,28,Female,1,TRUE,3.629,5,0,25,cooperation,TRUE,"While Sally is away, she will think that her ball is in the box.",TRUE
481,TRUE,5/14/19 16:32,R_3fW4slLzpd1kbI0,25,Female,1,TRUE,1.326,4,0,26,cooperation,TRUE,"While Sally is away, she will think that her ball is in the box.",TRUE
498,TRUE,5/14/19 16:35,R_2ztOw3MPuFgLpOW,43,Female,1,FALSE,2.82,7,1.324,4,cooperation,TRUE,"While Sally is away, she will think that her ball is in the box.",FALSE
541,TRUE,5/14/19 16:35,R_25zKVzfW9MCpON7,22,Male,1,FALSE,1.463,5,0,30,cooperation,TRUE,"While Sally is away, she will think that her ball is in the box.",FALSE
1060,TRUE,5/14/19 16:36,R_4Jlnqmgs0JqFgGZ,30,Male,1,TRUE,3.747,4,0,21,neutral,TRUE,"While Sally is away, she will think that her ball is in the box.",TRUE
1123,TRUE,5/14/19 16:37,R_2ciMm8WmFhV74X6,28,Female,1,TRUE,2.705,4,4.591,29,neutral,TRUE,"While Sally is away, she will think that her ball is in the box.",TRUE
1567,TRUE,5/14/19 16:39,R_1pAOZvGdKUuRHW1,61,Female,1,TRUE,2.8,5,2.2,26,cooperation,TRUE,"While Sally is away, she will think that her ball is in the box.",TRUE
698,TRUE,5/14/19 16:39,R_2AZniJm3WwEQQYs,35,Female,1,TRUE,1.962,5,1.17,2,cooperation,TRUE,"While Sally is away, she will think that her ball is in the box.",TRUE
1017,TRUE,5/14/19 16:39,R_1JXakBB0ny6kFBn,43,Female,1,TRUE,1.794,2,0.573,26,competition,TRUE,"While Sally is away, she will think that her ball is in the box.",TRUE
825,TRUE,5/14/19 16:39,R_1FJ1RbaVvIJYun5,27,Male,1,FALSE,2.902,5,0.48,8,neutral,TRUE,"While Sally is away, she will think that her ball is in the box.",FALSE
1266,TRUE,5/14/19 16:42,R_27HyKcao8EEy0Ne,37,Male,1,TRUE,9.652,4,7.7,8,neutral,TRUE,"While Sally is away, she will think that her ball is in the box.",TRUE
907,TRUE,5/14/19 16:43,R_RgGlpdV4JYbV52F,43,Female,1,TRUE,1.311,3,3.316,6,competition,TRUE,"While Sally is away, she will think that her ball is in the box.",TRUE
819,TRUE,5/14/19 16:43,R_2vkOyanR6k1G6ya,28,Male,1,FALSE,4.187,6,2.997,1,cooperation,TRUE,"While Sally is away, she will think that her ball is in the box.",FALSE
1481,TRUE,5/14/19 16:43,R_1r36C6RdKQM5ITH,39,Male,1,TRUE,12.098,1,8.493,2,neutral,TRUE,"While Sally is away, she will think that her ball is in the box.",TRUE
1025,TRUE,5/14/19 16:48,R_1rcc3VeMvr7F3K7,30,Male,1,TRUE,3.448,1,2.853,4,competition,TRUE,"While Sally is away, she will think that her ball is in the box.",TRUE
862,TRUE,5/14/19 16:50,R_1Hocb5VQV8VP4S5,27,Female,1,TRUE,1.539,5,0,27,cooperation,TRUE,"While Sally is away, she will think that her ball is in the box.",TRUE
1988,TRUE,5/14/19 16:54,R_OrjO7CVUB0Q5nzP,36,Female,1,FALSE,2.825,7,0,12,cooperation,TRUE,"While Sally is away, she will think that her ball is in the box.",FALSE
1859,TRUE,5/14/19 16:54,R_2eatXQR06sgxECZ,46,Male,1,TRUE,2.564,3,2.569,22,neutral,TRUE,"While Sally is away, she will think that her ball is in the box.",TRUE
672,TRUE,5/14/19 16:55,R_3iIszIiVZXbUOdu,35,Female,1,TRUE,1.737,4,0.99,7,neutral,TRUE,"While Sally is away, she will think that her ball is in the box.",TRUE
883,TRUE,5/14/19 16:55,R_2eUsEhD0GaCB5zR,60,Male,1,TRUE,2.522,5,0,23,cooperation,TRUE,"While Sally is away, she will think that her ball is in the box.",TRUE
1369,TRUE,5/14/19 16:58,R_2uxqBXluTbJKevZ,43,Female,1,TRUE,5.64,4,0,28,neutral,TRUE,"While Sally is away, she will think that her ball is in the box.",TRUE
610,TRUE,5/14/19 17:04,R_3enn41SwxDsrnfr,22,Female,1,TRUE,0.829,4,0,21,neutral,TRUE,"While Sally is away, she will think that her ball is in the box.",TRUE
1962,TRUE,5/14/19 17:06,R_3PHtv15K5tJpgoo,28,Male,1,TRUE,0.391,4,0.927,14,neutral,TRUE,"While Sally is away, she will think that her ball is in the box.",TRUE
1040,TRUE,5/14/19 17:28,R_2rAUh78NLhXbRGu,49,Female,1,TRUE,1.45,6,0.758,7,cooperation,TRUE,"While Sally is away, she will think that her ball is in the box.",TRUE
1505,TRUE,5/14/19 17:35,R_1erPvc8JBTqHT91,25,Female,1,TRUE,2.379,4,0,10,neutral,TRUE,"While Sally is away, she will think that her ball is in the box.",TRUE
16044,TRUE,5/14/19 23:36,R_3lMGZY0jbuDADUu,37,Female,1,TRUE,0,3,0.843,23,competition,TRUE,"While Sally is away, she will think that her ball is in the box.",TRUE
579,TRUE,5/14/19 15:29,R_2DYMxUdsqW7urie,NA,Male,2,FALSE,8.162,4,1.525,28,cooperation,TRUE,"While Lucy is in the attic, she will think that her keep pile is still on her bed.",FALSE
579,TRUE,5/14/19 15:29,R_3nMfbYgmeMsZrvT,29,Male,2,TRUE,2.818,4,1.701,3,cooperation,TRUE,"While Lucy is in the attic, she will think that her keep pile is still on her bed.",TRUE
551,TRUE,5/14/19 15:30,R_1Q3kb3QHK7VyE5w,30,Male,2,TRUE,1.757,3,0.076,20,neutral,TRUE,"While Lucy is in the attic, she will think that her keep pile is still on her bed.",TRUE
733,TRUE,5/14/19 15:30,R_3PnHRjcnKxu90Zm,25,Male,2,TRUE,2.15,4,3.976,2,neutral,TRUE,"While Lucy is in the attic, she will think that her keep pile is still on her bed.",TRUE
680,TRUE,5/14/19 15:31,R_1od3IZBBcQ8uIKW,35,Male,2,TRUE,1.618,4,0.931,13,neutral,TRUE,"While Lucy is in the attic, she will think that her keep pile is still on her bed.",TRUE
768,TRUE,5/14/19 15:31,R_29n0nxx0pYvnTbf,NA,Female,2,TRUE,1.668,4,0,19,neutral,TRUE,"While Lucy is in the attic, she will think that her keep pile is still on her bed.",TRUE
775,TRUE,5/14/19 15:31,R_vDoFAJWn3ficlc5,30,Female,2,FALSE,0.729,7,0,28,neutral,TRUE,"While Lucy is in the attic, she will think that her keep pile is still on her bed.",FALSE
535,TRUE,5/14/19 15:31,R_1P5IiJLkPGRcfiq,25,Male,2,TRUE,2.338,5,0,9,cooperation,TRUE,"While Lucy is in the attic, she will think that her keep pile is still on her bed.",TRUE
640,TRUE,5/14/19 15:33,R_3RkhbbvCfn0cyo8,33,Female,2,TRUE,3.856,7,1.876,1,cooperation,TRUE,"While Lucy is in the attic, she will think that her keep pile is still on her bed.",TRUE
834,TRUE,5/14/19 15:35,R_6V9NBht1dZxbU2J,27,Male,2,FALSE,1.274,3,0.75,24,competition,TRUE,"While Lucy is in the attic, she will think that her keep pile is still on her bed.",FALSE
930,TRUE,5/14/19 15:35,R_UFRVby7h8t7VjHz,28,Male,2,FALSE,2.78,5,2.315,2,cooperation,TRUE,"While Lucy is in the attic, she will think that her keep pile is still on her bed.",FALSE
1038,TRUE,5/14/19 15:36,R_1N3vJDGAXY0GM2n,32,Female,2,TRUE,18.361,4,0,18,cooperation,TRUE,"While Lucy is in the attic, she will think that her keep pile is still on her bed.",TRUE
733,TRUE,5/14/19 15:36,R_3lVvCsyyISloSBp,50,Female,2,TRUE,7.267,3,1.44,3,competition,TRUE,"While Lucy is in the attic, she will think that her keep pile is still on her bed.",TRUE
906,TRUE,5/14/19 15:37,R_qVfrw0StuNHWayZ,25,Female,2,TRUE,0,4,0,20,neutral,TRUE,"While Lucy is in the attic, she will think that her keep pile is still on her bed.",TRUE
1003,TRUE,5/14/19 15:38,R_2BaL8D4IySmLflo,69,Female,2,TRUE,3.691,5,1.572,20,neutral,TRUE,"While Lucy is in the attic, she will think that her keep pile is still on her bed.",TRUE
597,TRUE,5/14/19 15:39,R_1Pc9cOk0l6A0h8S,28,Female,2,TRUE,1.454,3,1.283,28,neutral,TRUE,"While Lucy is in the attic, she will think that her keep pile is still on her bed.",TRUE
1255,TRUE,5/14/19 15:40,R_2yjBy07pV5aTodV,61,Male,2,TRUE,4.686,3,4.46,14,competition,TRUE,"While Lucy is in the attic, she will think that her keep pile is still on her bed.",TRUE
920,TRUE,5/14/19 15:40,R_C4CAtlo7vvfNObD,35,Male,2,TRUE,4.182,4,1.099,5,neutral,TRUE,"While Lucy is in the attic, she will think that her keep pile is still on her bed.",TRUE
1341,TRUE,5/14/19 15:41,R_1JXGXB9uKyABYsi,33,Male,2,TRUE,63.172,7,2.592,6,cooperation,TRUE,"While Lucy is in the attic, she will think that her keep pile is still on her bed.",TRUE
1333,TRUE,5/14/19 15:41,R_22LCMPNC6mifHiK,45,Male,2,FALSE,0.735,5,1.162,1,neutral,TRUE,"While Lucy is in the attic, she will think that her keep pile is still on her bed.",FALSE
1083,TRUE,5/14/19 15:42,R_25ZcUMpbiKpeV3s,32,Male,2,TRUE,8.7,4,4.611,1,cooperation,TRUE,"While Lucy is in the attic, she will think that her keep pile is still on her bed.",TRUE
1175,TRUE,5/14/19 15:44,R_aY6g2ByMB4qKO2J,40,Male,2,TRUE,4.172,2,0,23,competition,TRUE,"While Lucy is in the attic, she will think that her keep pile is still on her bed.",TRUE
507,TRUE,5/14/19 15:45,R_2lvv85ZKMt5KE25,30,Male,2,TRUE,1.932,3,1.87,2,cooperation,TRUE,"While Lucy is in the attic, she will think that her keep pile is still on her bed.",TRUE
757,TRUE,5/14/19 15:45,R_3kol2JCP8rpesQJ,21,Male,2,TRUE,1.894,1,0,14,competition,TRUE,"While Lucy is in the attic, she will think that her keep pile is still on her bed.",TRUE
1186,TRUE,5/14/19 15:46,R_2vcWnChzOZMfBPi,56,Male,2,TRUE,3.202,4,3.201,27,neutral,TRUE,"While Lucy is in the attic, she will think that her keep pile is still on her bed.",TRUE
369,TRUE,5/14/19 15:46,R_33qk6fuoaenveiB,29,Male,2,FALSE,0.396,4,0,21,cooperation,TRUE,"While Lucy is in the attic, she will think that her keep pile is still on her bed.",FALSE
357,TRUE,5/14/19 15:47,R_eVu78PIuCrJOPOp,27,Male,2,TRUE,0.758,4,0.513,14,cooperation,TRUE,"While Lucy is in the attic, she will think that her keep pile is still on her bed.",TRUE
1545,TRUE,5/14/19 15:47,R_27rIoDYd95Xzofm,33,Male,2,TRUE,5.253,2,1.652,13,competition,TRUE,"While Lucy is in the attic, she will think that her keep pile is still on her bed.",TRUE
1106,TRUE,5/14/19 15:48,R_1kFkiOFrtO9QsaN,27,Male,2,TRUE,4.939,3,2.028,8,cooperation,TRUE,"While Lucy is in the attic, she will think that her keep pile is still on her bed.",TRUE
876,TRUE,5/14/19 15:48,R_1obBfD0fnpJu1qc,30,Male,2,TRUE,0.658,5,0,11,cooperation,TRUE,"While Lucy is in the attic, she will think that her keep pile is still on her bed.",TRUE
1128,TRUE,5/14/19 15:48,R_2f1mnoVb9rkUCDM,58,Male,2,TRUE,4.547,4,1.544,20,neutral,TRUE,"While Lucy is in the attic, she will think that her keep pile is still on her bed.",TRUE
1265,TRUE,5/14/19 15:50,R_3ipQYCn84x6SPFy,55,Female,2,TRUE,11.757,5,2.193,21,cooperation,TRUE,"While Lucy is in the attic, she will think that her keep pile is still on her bed.",TRUE
1377,TRUE,5/14/19 15:50,R_CetIIdJkszskoSJ,35,Male,2,TRUE,2.871,3,1.323,11,competition,TRUE,"While Lucy is in the attic, she will think that her keep pile is still on her bed.",TRUE
907,TRUE,5/14/19 15:50,R_23WxnjIymLBMOLc,27,Female,2,TRUE,1.255,5,0,20,cooperation,TRUE,"While Lucy is in the attic, she will think that her keep pile is still on her bed.",TRUE
959,TRUE,5/14/19 15:51,R_0D8gcBPEOLTpuHT,28,Male,2,TRUE,4.12,1,0,29,neutral,TRUE,"While Lucy is in the attic, she will think that her keep pile is still on her bed.",TRUE
549,TRUE,5/14/19 15:52,R_1r6LGa91FM9pKJd,31,Male,2,TRUE,1.923,4,0.755,19,cooperation,TRUE,"While Lucy is in the attic, she will think that her keep pile is still on her bed.",TRUE
1411,TRUE,5/14/19 15:54,R_1Q4JlHjSTfYLh6W,32,Male,2,TRUE,3.429,2,4.037,5,competition,TRUE,"While Lucy is in the attic, she will think that her keep pile is still on her bed.",TRUE
755,TRUE,5/14/19 15:56,R_2OZMbYgsYCsUxuq,33,Male,2,TRUE,5.188,3,1.783,8,competition,TRUE,"While Lucy is in the attic, she will think that her keep pile is still on her bed.",TRUE
1151,TRUE,5/14/19 15:56,R_1Iy3JZKjpKtphoe,28,Male,2,TRUE,2.435,4,0.311,30,cooperation,TRUE,"While Lucy is in the attic, she will think that her keep pile is still on her bed.",TRUE
859,TRUE,5/14/19 15:56,R_BJK0CCdFIggs2Ih,31,Male,2,TRUE,2.298,4,0,28,neutral,TRUE,"While Lucy is in the attic, she will think that her keep pile is still on her bed.",TRUE
1607,TRUE,5/14/19 15:58,R_1CraoytTQtSdFMe,59,Female,2,TRUE,4.225,3,0,11,neutral,TRUE,"While Lucy is in the attic, she will think that her keep pile is still on her bed.",TRUE
1419,TRUE,5/14/19 16:00,R_1DOph3TS2kLMloH,60,Male,2,TRUE,2.017,5,0,27,cooperation,TRUE,"While Lucy is in the attic, she will think that her keep pile is still on her bed.",TRUE
892,TRUE,5/14/19 16:02,R_WCYTKarVRY7loJj,59,Male,2,TRUE,2.925,1,4.456,9,competition,TRUE,"While Lucy is in the attic, she will think that her keep pile is still on her bed.",TRUE
362,TRUE,5/14/19 16:02,R_1jJLTVgtKZtgbZc,30,Female,2,TRUE,1.102,4,0,27,cooperation,TRUE,"While Lucy is in the attic, she will think that her keep pile is still on her bed.",TRUE
1549,TRUE,5/14/19 16:04,R_1gC7uL1hTOZoxLQ,30,Male,2,TRUE,2.56,4,0.992,25,competition,TRUE,"While Lucy is in the attic, she will think that her keep pile is still on her bed.",TRUE
777,TRUE,5/14/19 16:06,R_2CB9I8sjBPestnU,32,Male,2,TRUE,1.526,2,0,12,competition,TRUE,"While Lucy is in the attic, she will think that her keep pile is still on her bed.",TRUE
558,TRUE,5/14/19 16:07,R_w6oo2lORlkkwg6J,52,Male,2,TRUE,0.712,4,0.724,11,cooperation,TRUE,"While Lucy is in the attic, she will think that her keep pile is still on her bed.",TRUE
842,TRUE,5/14/19 16:07,R_1QFUsHLgI1PKzdX,33,Other,2,FALSE,2.788,3,0,2,cooperation,TRUE,"While Lucy is in the attic, she will think that her keep pile is still on her bed.",FALSE
994,TRUE,5/14/19 16:08,R_2w1zXkAmwMRLqbU,55,Male,2,TRUE,2.928,3,2.624,23,cooperation,TRUE,"While Lucy is in the attic, she will think that her keep pile is still on her bed.",TRUE
526,TRUE,5/14/19 16:09,R_yVojdxA4Qc2SM6Z,22,Female,2,TRUE,1.78,3,0.8,17,neutral,TRUE,"While Lucy is in the attic, she will think that her keep pile is still on her bed.",TRUE
1530,TRUE,5/14/19 16:12,R_2uCgFaRmHUDhIf7,31,Male,2,TRUE,37.276,5,3.268,5,cooperation,TRUE,"While Lucy is in the attic, she will think that her keep pile is still on her bed.",TRUE
697,TRUE,5/14/19 16:12,R_22WEl3oKB1yJlqu,32,Male,2,TRUE,2.685,4,0,13,cooperation,TRUE,"While Lucy is in the attic, she will think that her keep pile is still on her bed.",TRUE
1231,TRUE,5/14/19 16:12,R_2VQh51rUDdZ9Jjj,34,Female,2,TRUE,1.653,1,0.499,16,competition,TRUE,"While Lucy is in the attic, she will think that her keep pile is still on her bed.",TRUE
1236,TRUE,5/14/19 16:16,R_2Etzf5ukQIjbtJC,33,Male,2,TRUE,2.192,1,1.436,7,competition,TRUE,"While Lucy is in the attic, she will think that her keep pile is still on her bed.",TRUE
716,TRUE,5/14/19 16:17,R_2aaaG4DS3K5xQKV,38,Male,2,TRUE,1.572,4,0,19,neutral,TRUE,"While Lucy is in the attic, she will think that her keep pile is still on her bed.",TRUE
281,TRUE,5/14/19 16:18,R_1IaTnBTvxnhMUS8,24,Female,2,FALSE,0.391,6,1.149,12,competition,TRUE,"While Lucy is in the attic, she will think that her keep pile is still on her bed.",FALSE
611,TRUE,5/14/19 16:23,R_su4ao8Mrwhsf4f7,30,Male,2,TRUE,2.051,4,0.695,16,competition,TRUE,"While Lucy is in the attic, she will think that her keep pile is still on her bed.",TRUE
1915,TRUE,5/14/19 16:24,R_3PREu7zW7lf39D8,26,Male,2,TRUE,1.678,5,1.257,17,competition,TRUE,"While Lucy is in the attic, she will think that her keep pile is still on her bed.",TRUE
1626,TRUE,5/14/19 16:26,R_2EzAdUE0tbjp8v7,37,Male,2,TRUE,3.791,4,4.821,27,competition,TRUE,"While Lucy is in the attic, she will think that her keep pile is still on her bed.",TRUE
552,TRUE,5/14/19 16:26,R_QfGskrDfHKZWl2h,20,Male,2,TRUE,1.613,5,1.783,13,cooperation,TRUE,"While Lucy is in the attic, she will think that her keep pile is still on her bed.",TRUE
990,TRUE,5/14/19 16:29,R_3NXpuQFQ4bHgQRE,33,Female,2,TRUE,2.515,5,1.117,19,cooperation,TRUE,"While Lucy is in the attic, she will think that her keep pile is still on her bed.",TRUE
1114,TRUE,5/14/19 16:30,R_AyCN2EJ5lU2nyYF,43,Female,2,TRUE,2.416,2,2.207,18,competition,TRUE,"While Lucy is in the attic, she will think that her keep pile is still on her bed.",TRUE
713,TRUE,5/14/19 16:31,R_uftWlqmgubaOJ69,28,Female,2,TRUE,3.025,5,0,26,cooperation,TRUE,"While Lucy is in the attic, she will think that her keep pile is still on her bed.",TRUE
481,TRUE,5/14/19 16:32,R_3fW4slLzpd1kbI0,25,Female,2,TRUE,2.36,4,1.189,24,cooperation,TRUE,"While Lucy is in the attic, she will think that her keep pile is still on her bed.",TRUE
498,TRUE,5/14/19 16:35,R_2ztOw3MPuFgLpOW,43,Female,2,TRUE,3.051,7,0.717,5,cooperation,TRUE,"While Lucy is in the attic, she will think that her keep pile is still on her bed.",TRUE
541,TRUE,5/14/19 16:35,R_25zKVzfW9MCpON7,22,Male,2,TRUE,2.631,3,1.141,24,cooperation,TRUE,"While Lucy is in the attic, she will think that her keep pile is still on her bed.",TRUE
1060,TRUE,5/14/19 16:36,R_4Jlnqmgs0JqFgGZ,30,Male,2,TRUE,2.532,6,1.735,29,competition,TRUE,"While Lucy is in the attic, she will think that her keep pile is still on her bed.",TRUE
1123,TRUE,5/14/19 16:37,R_2ciMm8WmFhV74X6,28,Female,2,TRUE,4.05,5,6.954,28,competition,TRUE,"While Lucy is in the attic, she will think that her keep pile is still on her bed.",TRUE
1567,TRUE,5/14/19 16:39,R_1pAOZvGdKUuRHW1,61,Female,2,TRUE,2.7,4,14.501,11,neutral,TRUE,"While Lucy is in the attic, she will think that her keep pile is still on her bed.",TRUE
698,TRUE,5/14/19 16:39,R_2AZniJm3WwEQQYs,35,Female,2,TRUE,1.949,4,0.322,25,neutral,TRUE,"While Lucy is in the attic, she will think that her keep pile is still on her bed.",TRUE
1017,TRUE,5/14/19 16:39,R_1JXakBB0ny6kFBn,43,Female,2,TRUE,3.05,1,0.652,7,competition,TRUE,"While Lucy is in the attic, she will think that her keep pile is still on her bed.",TRUE
825,TRUE,5/14/19 16:39,R_1FJ1RbaVvIJYun5,27,Male,2,TRUE,2.247,4,0,23,neutral,TRUE,"While Lucy is in the attic, she will think that her keep pile is still on her bed.",TRUE
1266,TRUE,5/14/19 16:42,R_27HyKcao8EEy0Ne,37,Male,2,TRUE,8.135,5,0,7,cooperation,TRUE,"While Lucy is in the attic, she will think that her keep pile is still on her bed.",TRUE
907,TRUE,5/14/19 16:43,R_RgGlpdV4JYbV52F,43,Female,2,TRUE,1.376,1,0.69,18,competition,TRUE,"While Lucy is in the attic, she will think that her keep pile is still on her bed.",TRUE
819,TRUE,5/14/19 16:43,R_2vkOyanR6k1G6ya,28,Male,2,TRUE,2.142,3,0,24,competition,TRUE,"While Lucy is in the attic, she will think that her keep pile is still on her bed.",TRUE
1481,TRUE,5/14/19 16:43,R_1r36C6RdKQM5ITH,39,Male,2,TRUE,3.525,4,0,12,cooperation,TRUE,"While Lucy is in the attic, she will think that her keep pile is still on her bed.",TRUE
1025,TRUE,5/14/19 16:48,R_1rcc3VeMvr7F3K7,30,Male,2,TRUE,3.198,3,0,16,neutral,TRUE,"While Lucy is in the attic, she will think that her keep pile is still on her bed.",TRUE
862,TRUE,5/14/19 16:50,R_1Hocb5VQV8VP4S5,27,Female,2,TRUE,1.319,5,1.054,19,neutral,TRUE,"While Lucy is in the attic, she will think that her keep pile is still on her bed.",TRUE
1988,TRUE,5/14/19 16:54,R_OrjO7CVUB0Q5nzP,36,Female,2,TRUE,17.023,5,0,14,cooperation,TRUE,"While Lucy is in the attic, she will think that her keep pile is still on her bed.",TRUE
1859,TRUE,5/14/19 16:54,R_2eatXQR06sgxECZ,46,Male,2,TRUE,1.361,5,1.971,14,neutral,TRUE,"While Lucy is in the attic, she will think that her keep pile is still on her bed.",TRUE
672,TRUE,5/14/19 16:55,R_3iIszIiVZXbUOdu,35,Female,2,TRUE,1.426,4,0.29,25,neutral,TRUE,"While Lucy is in the attic, she will think that her keep pile is still on her bed.",TRUE
883,TRUE,5/14/19 16:55,R_2eUsEhD0GaCB5zR,60,Male,2,TRUE,2.523,5,1.84,13,neutral,TRUE,"While Lucy is in the attic, she will think that her keep pile is still on her bed.",TRUE
1369,TRUE,5/14/19 16:58,R_2uxqBXluTbJKevZ,43,Female,2,TRUE,5.134,4,0,27,competition,TRUE,"While Lucy is in the attic, she will think that her keep pile is still on her bed.",TRUE
610,TRUE,5/14/19 17:04,R_3enn41SwxDsrnfr,22,Female,2,TRUE,2.445,2,0,2,competition,TRUE,"While Lucy is in the attic, she will think that her keep pile is still on her bed.",TRUE
1962,TRUE,5/14/19 17:06,R_3PHtv15K5tJpgoo,28,Male,2,TRUE,1.375,3,0.534,22,neutral,TRUE,"While Lucy is in the attic, she will think that her keep pile is still on her bed.",TRUE
1040,TRUE,5/14/19 17:28,R_2rAUh78NLhXbRGu,49,Female,2,TRUE,2.284,5,3.683,25,cooperation,TRUE,"While Lucy is in the attic, she will think that her keep pile is still on her bed.",TRUE
1505,TRUE,5/14/19 17:35,R_1erPvc8JBTqHT91,25,Female,2,TRUE,2.787,1,0,21,competition,TRUE,"While Lucy is in the attic, she will think that her keep pile is still on her bed.",TRUE
16044,TRUE,5/14/19 23:36,R_3lMGZY0jbuDADUu,37,Female,2,TRUE,19.013,5,3.59,10,cooperation,TRUE,"While Lucy is in the attic, she will think that her keep pile is still on her bed.",TRUE
579,TRUE,5/14/19 15:29,R_2DYMxUdsqW7urie,NA,Male,3,FALSE,1.361,4,0,7,neutral,FALSE,"When Roxanne wakes up, she will think the puzzle is completed.",TRUE
579,TRUE,5/14/19 15:29,R_3nMfbYgmeMsZrvT,29,Male,3,FALSE,2.924,6,0.635,9,neutral,FALSE,"When Roxanne wakes up, she will think the puzzle is completed.",TRUE
551,TRUE,5/14/19 15:30,R_1Q3kb3QHK7VyE5w,30,Male,3,FALSE,1.44,3,0,22,neutral,FALSE,"When Roxanne wakes up, she will think the puzzle is completed.",TRUE
733,TRUE,5/14/19 15:30,R_3PnHRjcnKxu90Zm,25,Male,3,FALSE,3.03,3,1.429,9,competition,FALSE,"When Roxanne wakes up, she will think the puzzle is completed.",TRUE
680,TRUE,5/14/19 15:31,R_1od3IZBBcQ8uIKW,35,Male,3,FALSE,1.567,3,1.182,15,competition,FALSE,"When Roxanne wakes up, she will think the puzzle is completed.",TRUE
768,TRUE,5/14/19 15:31,R_29n0nxx0pYvnTbf,NA,Female,3,FALSE,1.371,6,0,15,cooperation,FALSE,"When Roxanne wakes up, she will think the puzzle is completed.",TRUE
775,TRUE,5/14/19 15:31,R_vDoFAJWn3ficlc5,30,Female,3,FALSE,52.506,5,0,23,cooperation,FALSE,"When Roxanne wakes up, she will think the puzzle is completed.",TRUE
535,TRUE,5/14/19 15:31,R_1P5IiJLkPGRcfiq,25,Male,3,FALSE,1.814,4,0,14,neutral,FALSE,"When Roxanne wakes up, she will think the puzzle is completed.",TRUE
640,TRUE,5/14/19 15:33,R_3RkhbbvCfn0cyo8,33,Female,3,TRUE,1.881,5,0.37,30,neutral,FALSE,"When Roxanne wakes up, she will think the puzzle is completed.",FALSE
834,TRUE,5/14/19 15:35,R_6V9NBht1dZxbU2J,27,Male,3,FALSE,1.392,4,0.58,26,neutral,FALSE,"When Roxanne wakes up, she will think the puzzle is completed.",TRUE
930,TRUE,5/14/19 15:35,R_UFRVby7h8t7VjHz,28,Male,3,FALSE,1.694,4,2.145,26,neutral,FALSE,"When Roxanne wakes up, she will think the puzzle is completed.",TRUE
1038,TRUE,5/14/19 15:36,R_1N3vJDGAXY0GM2n,32,Female,3,FALSE,9.529,1,1.456,20,competition,FALSE,"When Roxanne wakes up, she will think the puzzle is completed.",TRUE
733,TRUE,5/14/19 15:36,R_3lVvCsyyISloSBp,50,Female,3,FALSE,4.65,6,0,12,competition,FALSE,"When Roxanne wakes up, she will think the puzzle is completed.",TRUE
906,TRUE,5/14/19 15:37,R_qVfrw0StuNHWayZ,25,Female,3,FALSE,0,3,0,24,neutral,FALSE,"When Roxanne wakes up, she will think the puzzle is completed.",TRUE
1003,TRUE,5/14/19 15:38,R_2BaL8D4IySmLflo,69,Female,3,FALSE,25.328,3,0,23,cooperation,FALSE,"When Roxanne wakes up, she will think the puzzle is completed.",TRUE
597,TRUE,5/14/19 15:39,R_1Pc9cOk0l6A0h8S,28,Female,3,TRUE,1.033,5,0,14,cooperation,FALSE,"When Roxanne wakes up, she will think the puzzle is completed.",FALSE
1255,TRUE,5/14/19 15:40,R_2yjBy07pV5aTodV,61,Male,3,FALSE,2.317,2,2.089,4,neutral,FALSE,"When Roxanne wakes up, she will think the puzzle is completed.",TRUE
920,TRUE,5/14/19 15:40,R_C4CAtlo7vvfNObD,35,Male,3,FALSE,2.403,4,0.61,16,neutral,FALSE,"When Roxanne wakes up, she will think the puzzle is completed.",TRUE
1341,TRUE,5/14/19 15:41,R_1JXGXB9uKyABYsi,33,Male,3,FALSE,4.118,6,3.723,20,cooperation,FALSE,"When Roxanne wakes up, she will think the puzzle is completed.",TRUE
1333,TRUE,5/14/19 15:41,R_22LCMPNC6mifHiK,45,Male,3,TRUE,12.688,6,0,12,neutral,FALSE,"When Roxanne wakes up, she will think the puzzle is completed.",FALSE
1083,TRUE,5/14/19 15:42,R_25ZcUMpbiKpeV3s,32,Male,3,FALSE,2.391,2,1.279,19,neutral,FALSE,"When Roxanne wakes up, she will think the puzzle is completed.",TRUE
1175,TRUE,5/14/19 15:44,R_aY6g2ByMB4qKO2J,40,Male,3,FALSE,1.703,3,1.376,22,competition,FALSE,"When Roxanne wakes up, she will think the puzzle is completed.",TRUE
507,TRUE,5/14/19 15:45,R_2lvv85ZKMt5KE25,30,Male,3,FALSE,1.862,3,0,10,neutral,FALSE,"When Roxanne wakes up, she will think the puzzle is completed.",TRUE
757,TRUE,5/14/19 15:45,R_3kol2JCP8rpesQJ,21,Male,3,FALSE,1.537,6,0,23,cooperation,FALSE,"When Roxanne wakes up, she will think the puzzle is completed.",TRUE
1186,TRUE,5/14/19 15:46,R_2vcWnChzOZMfBPi,56,Male,3,FALSE,5.022,2,0,8,competition,FALSE,"When Roxanne wakes up, she will think the puzzle is completed.",TRUE
369,TRUE,5/14/19 15:46,R_33qk6fuoaenveiB,29,Male,3,FALSE,2.292,4,0.987,24,cooperation,FALSE,"When Roxanne wakes up, she will think the puzzle is completed.",TRUE
357,TRUE,5/14/19 15:47,R_eVu78PIuCrJOPOp,27,Male,3,TRUE,0.516,3,0.4,26,neutral,FALSE,"When Roxanne wakes up, she will think the puzzle is completed.",FALSE
1545,TRUE,5/14/19 15:47,R_27rIoDYd95Xzofm,33,Male,3,FALSE,2.97,6,2.311,8,cooperation,FALSE,"When Roxanne wakes up, she will think the puzzle is completed.",TRUE
1106,TRUE,5/14/19 15:48,R_1kFkiOFrtO9QsaN,27,Male,3,FALSE,2.545,6,1.495,17,cooperation,FALSE,"When Roxanne wakes up, she will think the puzzle is completed.",TRUE
876,TRUE,5/14/19 15:48,R_1obBfD0fnpJu1qc,30,Male,3,TRUE,29.039,6,0.558,6,competition,FALSE,"When Roxanne wakes up, she will think the puzzle is completed.",FALSE
1128,TRUE,5/14/19 15:48,R_2f1mnoVb9rkUCDM,58,Male,3,FALSE,2.343,4,1.797,5,neutral,FALSE,"When Roxanne wakes up, she will think the puzzle is completed.",TRUE
1265,TRUE,5/14/19 15:50,R_3ipQYCn84x6SPFy,55,Female,3,FALSE,2.947,4,1.223,22,cooperation,FALSE,"When Roxanne wakes up, she will think the puzzle is completed.",TRUE
1377,TRUE,5/14/19 15:50,R_CetIIdJkszskoSJ,35,Male,3,FALSE,6.676,5,0,2,cooperation,FALSE,"When Roxanne wakes up, she will think the puzzle is completed.",TRUE
907,TRUE,5/14/19 15:50,R_23WxnjIymLBMOLc,27,Female,3,FALSE,57.505,5,6.341,1,competition,FALSE,"When Roxanne wakes up, she will think the puzzle is completed.",TRUE
959,TRUE,5/14/19 15:51,R_0D8gcBPEOLTpuHT,28,Male,3,TRUE,2.062,7,0,7,competition,FALSE,"When Roxanne wakes up, she will think the puzzle is completed.",FALSE
549,TRUE,5/14/19 15:52,R_1r6LGa91FM9pKJd,31,Male,3,FALSE,1.729,2,0,20,competition,FALSE,"When Roxanne wakes up, she will think the puzzle is completed.",TRUE
1411,TRUE,5/14/19 15:54,R_1Q4JlHjSTfYLh6W,32,Male,3,FALSE,2.795,5,3.739,6,cooperation,FALSE,"When Roxanne wakes up, she will think the puzzle is completed.",TRUE
755,TRUE,5/14/19 15:56,R_2OZMbYgsYCsUxuq,33,Male,3,FALSE,6.021,5,0,12,neutral,FALSE,"When Roxanne wakes up, she will think the puzzle is completed.",TRUE
1151,TRUE,5/14/19 15:56,R_1Iy3JZKjpKtphoe,28,Male,3,FALSE,1.353,1,0,4,cooperation,FALSE,"When Roxanne wakes up, she will think the puzzle is completed.",TRUE
859,TRUE,5/14/19 15:56,R_BJK0CCdFIggs2Ih,31,Male,3,FALSE,3.59,4,2.346,4,neutral,FALSE,"When Roxanne wakes up, she will think the puzzle is completed.",TRUE
1607,TRUE,5/14/19 15:58,R_1CraoytTQtSdFMe,59,Female,3,FALSE,2.06,4,2.461,29,competition,FALSE,"When Roxanne wakes up, she will think the puzzle is completed.",TRUE
1419,TRUE,5/14/19 16:00,R_1DOph3TS2kLMloH,60,Male,3,FALSE,2.08,3,0,24,competition,FALSE,"When Roxanne wakes up, she will think the puzzle is completed.",TRUE
892,TRUE,5/14/19 16:02,R_WCYTKarVRY7loJj,59,Male,3,FALSE,1.894,1,0,30,competition,FALSE,"When Roxanne wakes up, she will think the puzzle is completed.",TRUE
362,TRUE,5/14/19 16:02,R_1jJLTVgtKZtgbZc,30,Female,3,FALSE,1.672,5,0,9,neutral,FALSE,"When Roxanne wakes up, she will think the puzzle is completed.",TRUE
1549,TRUE,5/14/19 16:04,R_1gC7uL1hTOZoxLQ,30,Male,3,FALSE,2.959,2,0,13,neutral,FALSE,"When Roxanne wakes up, she will think the puzzle is completed.",TRUE
777,TRUE,5/14/19 16:06,R_2CB9I8sjBPestnU,32,Male,3,FALSE,0.931,5,0,27,cooperation,FALSE,"When Roxanne wakes up, she will think the puzzle is completed.",TRUE
558,TRUE,5/14/19 16:07,R_w6oo2lORlkkwg6J,52,Male,3,TRUE,1.786,4,0.652,15,neutral,FALSE,"When Roxanne wakes up, she will think the puzzle is completed.",FALSE
842,TRUE,5/14/19 16:07,R_1QFUsHLgI1PKzdX,33,Other,3,FALSE,1.112,4,0,25,cooperation,FALSE,"When Roxanne wakes up, she will think the puzzle is completed.",TRUE
994,TRUE,5/14/19 16:08,R_2w1zXkAmwMRLqbU,55,Male,3,FALSE,2.838,3,0,14,neutral,FALSE,"When Roxanne wakes up, she will think the puzzle is completed.",TRUE
526,TRUE,5/14/19 16:09,R_yVojdxA4Qc2SM6Z,22,Female,3,FALSE,1.683,1,1.602,3,neutral,FALSE,"When Roxanne wakes up, she will think the puzzle is completed.",TRUE
1530,TRUE,5/14/19 16:12,R_2uCgFaRmHUDhIf7,31,Male,3,FALSE,12.268,1,20.928,18,competition,FALSE,"When Roxanne wakes up, she will think the puzzle is completed.",TRUE
697,TRUE,5/14/19 16:12,R_22WEl3oKB1yJlqu,32,Male,3,FALSE,2.166,3,0,19,cooperation,FALSE,"When Roxanne wakes up, she will think the puzzle is completed.",TRUE
1231,TRUE,5/14/19 16:12,R_2VQh51rUDdZ9Jjj,34,Female,3,FALSE,2.275,6,0.428,26,neutral,FALSE,"When Roxanne wakes up, she will think the puzzle is completed.",TRUE
1236,TRUE,5/14/19 16:16,R_2Etzf5ukQIjbtJC,33,Male,3,FALSE,1.722,4,0.961,29,neutral,FALSE,"When Roxanne wakes up, she will think the puzzle is completed.",TRUE
716,TRUE,5/14/19 16:17,R_2aaaG4DS3K5xQKV,38,Male,3,FALSE,2.42,2,0,2,competition,FALSE,"When Roxanne wakes up, she will think the puzzle is completed.",TRUE
281,TRUE,5/14/19 16:18,R_1IaTnBTvxnhMUS8,24,Female,3,FALSE,0.458,5,0.713,17,competition,FALSE,"When Roxanne wakes up, she will think the puzzle is completed.",TRUE
611,TRUE,5/14/19 16:23,R_su4ao8Mrwhsf4f7,30,Male,3,FALSE,1.526,1,1.003,28,competition,FALSE,"When Roxanne wakes up, she will think the puzzle is completed.",TRUE
1915,TRUE,5/14/19 16:24,R_3PREu7zW7lf39D8,26,Male,3,TRUE,2.486,6,1.576,14,cooperation,FALSE,"When Roxanne wakes up, she will think the puzzle is completed.",FALSE
1626,TRUE,5/14/19 16:26,R_2EzAdUE0tbjp8v7,37,Male,3,FALSE,2.348,1,4.601,8,competition,FALSE,"When Roxanne wakes up, she will think the puzzle is completed.",TRUE
552,TRUE,5/14/19 16:26,R_QfGskrDfHKZWl2h,20,Male,3,FALSE,1.51,3,0,17,competition,FALSE,"When Roxanne wakes up, she will think the puzzle is completed.",TRUE
990,TRUE,5/14/19 16:29,R_3NXpuQFQ4bHgQRE,33,Female,3,FALSE,1.986,4,0,9,cooperation,FALSE,"When Roxanne wakes up, she will think the puzzle is completed.",TRUE
1114,TRUE,5/14/19 16:30,R_AyCN2EJ5lU2nyYF,43,Female,3,FALSE,3.261,4,2.127,23,neutral,FALSE,"When Roxanne wakes up, she will think the puzzle is completed.",TRUE
713,TRUE,5/14/19 16:31,R_uftWlqmgubaOJ69,28,Female,3,FALSE,1.72,3,0,22,competition,FALSE,"When Roxanne wakes up, she will think the puzzle is completed.",TRUE
481,TRUE,5/14/19 16:32,R_3fW4slLzpd1kbI0,25,Female,3,FALSE,2.659,1,1.104,7,competition,FALSE,"When Roxanne wakes up, she will think the puzzle is completed.",TRUE
498,TRUE,5/14/19 16:35,R_2ztOw3MPuFgLpOW,43,Female,3,TRUE,1.029,7,0,24,neutral,FALSE,"When Roxanne wakes up, she will think the puzzle is completed.",FALSE
541,TRUE,5/14/19 16:35,R_25zKVzfW9MCpON7,22,Male,3,FALSE,1.343,3,0,15,neutral,FALSE,"When Roxanne wakes up, she will think the puzzle is completed.",TRUE
1060,TRUE,5/14/19 16:36,R_4Jlnqmgs0JqFgGZ,30,Male,3,FALSE,1.172,3,0.667,11,competition,FALSE,"When Roxanne wakes up, she will think the puzzle is completed.",TRUE
1123,TRUE,5/14/19 16:37,R_2ciMm8WmFhV74X6,28,Female,3,FALSE,3.648,2,2.557,11,competition,FALSE,"When Roxanne wakes up, she will think the puzzle is completed.",TRUE
1567,TRUE,5/14/19 16:39,R_1pAOZvGdKUuRHW1,61,Female,3,FALSE,2.607,1,1.061,21,neutral,FALSE,"When Roxanne wakes up, she will think the puzzle is completed.",TRUE
698,TRUE,5/14/19 16:39,R_2AZniJm3WwEQQYs,35,Female,3,FALSE,1.883,2,1.027,6,neutral,FALSE,"When Roxanne wakes up, she will think the puzzle is completed.",TRUE
1017,TRUE,5/14/19 16:39,R_1JXakBB0ny6kFBn,43,Female,3,FALSE,3.877,2,1.989,13,neutral,FALSE,"When Roxanne wakes up, she will think the puzzle is completed.",TRUE
825,TRUE,5/14/19 16:39,R_1FJ1RbaVvIJYun5,27,Male,3,FALSE,1.408,7,0,24,cooperation,FALSE,"When Roxanne wakes up, she will think the puzzle is completed.",TRUE
1266,TRUE,5/14/19 16:42,R_27HyKcao8EEy0Ne,37,Male,3,TRUE,7.478,4,1.667,3,neutral,FALSE,"When Roxanne wakes up, she will think the puzzle is completed.",FALSE
907,TRUE,5/14/19 16:43,R_RgGlpdV4JYbV52F,43,Female,3,FALSE,1.788,5,5.676,4,cooperation,FALSE,"When Roxanne wakes up, she will think the puzzle is completed.",TRUE
819,TRUE,5/14/19 16:43,R_2vkOyanR6k1G6ya,28,Male,3,FALSE,5.294,4,0,2,cooperation,FALSE,"When Roxanne wakes up, she will think the puzzle is completed.",TRUE
1481,TRUE,5/14/19 16:43,R_1r36C6RdKQM5ITH,39,Male,3,FALSE,3.391,1,0,17,competition,FALSE,"When Roxanne wakes up, she will think the puzzle is completed.",TRUE
1025,TRUE,5/14/19 16:48,R_1rcc3VeMvr7F3K7,30,Male,3,TRUE,5.614,5,0,2,competition,FALSE,"When Roxanne wakes up, she will think the puzzle is completed.",FALSE
862,TRUE,5/14/19 16:50,R_1Hocb5VQV8VP4S5,27,Female,3,TRUE,0.556,5,1.233,15,competition,FALSE,"When Roxanne wakes up, she will think the puzzle is completed.",FALSE
1988,TRUE,5/14/19 16:54,R_OrjO7CVUB0Q5nzP,36,Female,3,FALSE,2.013,7,0.741,20,cooperation,FALSE,"When Roxanne wakes up, she will think the puzzle is completed.",TRUE
1859,TRUE,5/14/19 16:54,R_2eatXQR06sgxECZ,46,Male,3,FALSE,1.955,3,0.696,17,competition,FALSE,"When Roxanne wakes up, she will think the puzzle is completed.",TRUE
672,TRUE,5/14/19 16:55,R_3iIszIiVZXbUOdu,35,Female,3,FALSE,1.604,1,0.406,29,competition,FALSE,"When Roxanne wakes up, she will think the puzzle is completed.",TRUE
883,TRUE,5/14/19 16:55,R_2eUsEhD0GaCB5zR,60,Male,3,FALSE,5.038,5,2.954,6,cooperation,FALSE,"When Roxanne wakes up, she will think the puzzle is completed.",TRUE
1369,TRUE,5/14/19 16:58,R_2uxqBXluTbJKevZ,43,Female,3,FALSE,3.225,4,0,30,cooperation,FALSE,"When Roxanne wakes up, she will think the puzzle is completed.",TRUE
610,TRUE,5/14/19 17:04,R_3enn41SwxDsrnfr,22,Female,3,FALSE,0.861,7,0,13,cooperation,FALSE,"When Roxanne wakes up, she will think the puzzle is completed.",TRUE
1962,TRUE,5/14/19 17:06,R_3PHtv15K5tJpgoo,28,Male,3,TRUE,0.641,5,1.229,12,competition,FALSE,"When Roxanne wakes up, she will think the puzzle is completed.",FALSE
1040,TRUE,5/14/19 17:28,R_2rAUh78NLhXbRGu,49,Female,3,FALSE,3.12,4,1.673,21,cooperation,FALSE,"When Roxanne wakes up, she will think the puzzle is completed.",TRUE
1505,TRUE,5/14/19 17:35,R_1erPvc8JBTqHT91,25,Female,3,FALSE,1.356,1,0,26,neutral,FALSE,"When Roxanne wakes up, she will think the puzzle is completed.",TRUE
16044,TRUE,5/14/19 23:36,R_3lMGZY0jbuDADUu,37,Female,3,FALSE,5.839,7,4.067,16,cooperation,FALSE,"When Roxanne wakes up, she will think the puzzle is completed.",TRUE
579,TRUE,5/14/19 15:29,R_2DYMxUdsqW7urie,NA,Male,4,FALSE,1.155,5,0.915,15,neutral,TRUE,"When Brad wakes up, he will think that the DVDs are still at the house.",FALSE
579,TRUE,5/14/19 15:29,R_3nMfbYgmeMsZrvT,29,Male,4,TRUE,0.48,4,0,18,competition,TRUE,"When Brad wakes up, he will think that the DVDs are still at the house.",TRUE
551,TRUE,5/14/19 15:30,R_1Q3kb3QHK7VyE5w,30,Male,4,TRUE,2.271,4,0,7,cooperation,TRUE,"When Brad wakes up, he will think that the DVDs are still at the house.",TRUE
733,TRUE,5/14/19 15:30,R_3PnHRjcnKxu90Zm,25,Male,4,TRUE,2.632,5,1.546,23,cooperation,TRUE,"When Brad wakes up, he will think that the DVDs are still at the house.",TRUE
680,TRUE,5/14/19 15:31,R_1od3IZBBcQ8uIKW,35,Male,4,TRUE,2.212,4,1.122,21,neutral,TRUE,"When Brad wakes up, he will think that the DVDs are still at the house.",TRUE
768,TRUE,5/14/19 15:31,R_29n0nxx0pYvnTbf,NA,Female,4,TRUE,1.726,4,2.999,10,competition,TRUE,"When Brad wakes up, he will think that the DVDs are still at the house.",TRUE
775,TRUE,5/14/19 15:31,R_vDoFAJWn3ficlc5,30,Female,4,TRUE,0.669,7,0.717,30,competition,TRUE,"When Brad wakes up, he will think that the DVDs are still at the house.",TRUE
535,TRUE,5/14/19 15:31,R_1P5IiJLkPGRcfiq,25,Male,4,TRUE,2.368,6,0,17,cooperation,TRUE,"When Brad wakes up, he will think that the DVDs are still at the house.",TRUE
640,TRUE,5/14/19 15:33,R_3RkhbbvCfn0cyo8,33,Female,4,TRUE,1.6,2,0.1,25,competition,TRUE,"When Brad wakes up, he will think that the DVDs are still at the house.",TRUE
834,TRUE,5/14/19 15:35,R_6V9NBht1dZxbU2J,27,Male,4,TRUE,1.601,1,0.159,21,competition,TRUE,"When Brad wakes up, he will think that the DVDs are still at the house.",TRUE
930,TRUE,5/14/19 15:35,R_UFRVby7h8t7VjHz,28,Male,4,TRUE,2.914,5,1.702,11,cooperation,TRUE,"When Brad wakes up, he will think that the DVDs are still at the house.",TRUE
1038,TRUE,5/14/19 15:36,R_1N3vJDGAXY0GM2n,32,Female,4,TRUE,2.05,7,0.333,30,cooperation,TRUE,"When Brad wakes up, he will think that the DVDs are still at the house.",TRUE
733,TRUE,5/14/19 15:36,R_3lVvCsyyISloSBp,50,Female,4,TRUE,0.525,6,0.808,10,competition,TRUE,"When Brad wakes up, he will think that the DVDs are still at the house.",TRUE
906,TRUE,5/14/19 15:37,R_qVfrw0StuNHWayZ,25,Female,4,TRUE,0,4,0,9,competition,TRUE,"When Brad wakes up, he will think that the DVDs are still at the house.",TRUE
1003,TRUE,5/14/19 15:38,R_2BaL8D4IySmLflo,69,Female,4,TRUE,5.097,6,0,4,cooperation,TRUE,"When Brad wakes up, he will think that the DVDs are still at the house.",TRUE
597,TRUE,5/14/19 15:39,R_1Pc9cOk0l6A0h8S,28,Female,4,TRUE,1.32,6,1.305,16,cooperation,TRUE,"When Brad wakes up, he will think that the DVDs are still at the house.",TRUE
1255,TRUE,5/14/19 15:40,R_2yjBy07pV5aTodV,61,Male,4,TRUE,3.907,3,4.61,22,competition,TRUE,"When Brad wakes up, he will think that the DVDs are still at the house.",TRUE
920,TRUE,5/14/19 15:40,R_C4CAtlo7vvfNObD,35,Male,4,TRUE,1.902,6,0.425,17,cooperation,TRUE,"When Brad wakes up, he will think that the DVDs are still at the house.",TRUE
1341,TRUE,5/14/19 15:41,R_1JXGXB9uKyABYsi,33,Male,4,TRUE,2.547,7,1.269,4,cooperation,TRUE,"When Brad wakes up, he will think that the DVDs are still at the house.",TRUE
1333,TRUE,5/14/19 15:41,R_22LCMPNC6mifHiK,45,Male,4,TRUE,2.23,7,0,6,cooperation,TRUE,"When Brad wakes up, he will think that the DVDs are still at the house.",TRUE
1083,TRUE,5/14/19 15:42,R_25ZcUMpbiKpeV3s,32,Male,4,TRUE,3.519,4,0,8,neutral,TRUE,"When Brad wakes up, he will think that the DVDs are still at the house.",TRUE
1175,TRUE,5/14/19 15:44,R_aY6g2ByMB4qKO2J,40,Male,4,TRUE,2.655,6,0,24,cooperation,TRUE,"When Brad wakes up, he will think that the DVDs are still at the house.",TRUE
507,TRUE,5/14/19 15:45,R_2lvv85ZKMt5KE25,30,Male,4,FALSE,1.799,2,0.356,12,neutral,TRUE,"When Brad wakes up, he will think that the DVDs are still at the house.",FALSE
757,TRUE,5/14/19 15:45,R_3kol2JCP8rpesQJ,21,Male,4,TRUE,2.024,5,0,20,neutral,TRUE,"When Brad wakes up, he will think that the DVDs are still at the house.",TRUE
1186,TRUE,5/14/19 15:46,R_2vcWnChzOZMfBPi,56,Male,4,TRUE,2.45,4,0,20,neutral,TRUE,"When Brad wakes up, he will think that the DVDs are still at the house.",TRUE
369,TRUE,5/14/19 15:46,R_33qk6fuoaenveiB,29,Male,4,TRUE,1.246,4,0,3,cooperation,TRUE,"When Brad wakes up, he will think that the DVDs are still at the house.",TRUE
357,TRUE,5/14/19 15:47,R_eVu78PIuCrJOPOp,27,Male,4,TRUE,0.56,3,0.56,22,competition,TRUE,"When Brad wakes up, he will think that the DVDs are still at the house.",TRUE
1545,TRUE,5/14/19 15:47,R_27rIoDYd95Xzofm,33,Male,4,TRUE,3.266,7,1.586,12,cooperation,TRUE,"When Brad wakes up, he will think that the DVDs are still at the house.",TRUE
1106,TRUE,5/14/19 15:48,R_1kFkiOFrtO9QsaN,27,Male,4,TRUE,2.7,4,2.286,21,neutral,TRUE,"When Brad wakes up, he will think that the DVDs are still at the house.",TRUE
876,TRUE,5/14/19 15:48,R_1obBfD0fnpJu1qc,30,Male,4,FALSE,18.186,6,0,10,neutral,TRUE,"When Brad wakes up, he will think that the DVDs are still at the house.",FALSE
1128,TRUE,5/14/19 15:48,R_2f1mnoVb9rkUCDM,58,Male,4,TRUE,3.555,7,1.977,3,cooperation,TRUE,"When Brad wakes up, he will think that the DVDs are still at the house.",TRUE
1265,TRUE,5/14/19 15:50,R_3ipQYCn84x6SPFy,55,Female,4,FALSE,2.57,2,2.3,12,competition,TRUE,"When Brad wakes up, he will think that the DVDs are still at the house.",FALSE
1377,TRUE,5/14/19 15:50,R_CetIIdJkszskoSJ,35,Male,4,TRUE,2.893,6,1.185,8,cooperation,TRUE,"When Brad wakes up, he will think that the DVDs are still at the house.",TRUE
907,TRUE,5/14/19 15:50,R_23WxnjIymLBMOLc,27,Female,4,FALSE,0.686,6,0,26,neutral,TRUE,"When Brad wakes up, he will think that the DVDs are still at the house.",FALSE
959,TRUE,5/14/19 15:51,R_0D8gcBPEOLTpuHT,28,Male,4,TRUE,3.06,7,0,21,cooperation,TRUE,"When Brad wakes up, he will think that the DVDs are still at the house.",TRUE
549,TRUE,5/14/19 15:52,R_1r6LGa91FM9pKJd,31,Male,4,TRUE,1.585,2,0,25,competition,TRUE,"When Brad wakes up, he will think that the DVDs are still at the house.",TRUE
1411,TRUE,5/14/19 15:54,R_1Q4JlHjSTfYLh6W,32,Male,4,TRUE,2.291,1,0.989,16,competition,TRUE,"When Brad wakes up, he will think that the DVDs are still at the house.",TRUE
755,TRUE,5/14/19 15:56,R_2OZMbYgsYCsUxuq,33,Male,4,TRUE,2.498,3,0.805,28,competition,TRUE,"When Brad wakes up, he will think that the DVDs are still at the house.",TRUE
1151,TRUE,5/14/19 15:56,R_1Iy3JZKjpKtphoe,28,Male,4,TRUE,1.384,7,0,26,cooperation,TRUE,"When Brad wakes up, he will think that the DVDs are still at the house.",TRUE
859,TRUE,5/14/19 15:56,R_BJK0CCdFIggs2Ih,31,Male,4,TRUE,1.306,4,0,29,neutral,TRUE,"When Brad wakes up, he will think that the DVDs are still at the house.",TRUE
1607,TRUE,5/14/19 15:58,R_1CraoytTQtSdFMe,59,Female,4,TRUE,2.044,1,0,20,competition,TRUE,"When Brad wakes up, he will think that the DVDs are still at the house.",TRUE
1419,TRUE,5/14/19 16:00,R_1DOph3TS2kLMloH,60,Male,4,TRUE,2.013,2,4.309,9,competition,TRUE,"When Brad wakes up, he will think that the DVDs are still at the house.",TRUE
892,TRUE,5/14/19 16:02,R_WCYTKarVRY7loJj,59,Male,4,TRUE,3.022,7,0,22,cooperation,TRUE,"When Brad wakes up, he will think that the DVDs are still at the house.",TRUE
362,TRUE,5/14/19 16:02,R_1jJLTVgtKZtgbZc,30,Female,4,FALSE,0.595,4,0.599,6,cooperation,TRUE,"When Brad wakes up, he will think that the DVDs are still at the house.",FALSE
1549,TRUE,5/14/19 16:04,R_1gC7uL1hTOZoxLQ,30,Male,4,TRUE,2.428,2,0,14,neutral,TRUE,"When Brad wakes up, he will think that the DVDs are still at the house.",TRUE
777,TRUE,5/14/19 16:06,R_2CB9I8sjBPestnU,32,Male,4,TRUE,1.927,3,1.455,1,competition,TRUE,"When Brad wakes up, he will think that the DVDs are still at the house.",TRUE
558,TRUE,5/14/19 16:07,R_w6oo2lORlkkwg6J,52,Male,4,TRUE,2.12,7,0.653,23,neutral,TRUE,"When Brad wakes up, he will think that the DVDs are still at the house.",TRUE
842,TRUE,5/14/19 16:07,R_1QFUsHLgI1PKzdX,33,Other,4,TRUE,2.731,3,0,9,competition,TRUE,"When Brad wakes up, he will think that the DVDs are still at the house.",TRUE
994,TRUE,5/14/19 16:08,R_2w1zXkAmwMRLqbU,55,Male,4,TRUE,4.55,7,2.676,7,cooperation,TRUE,"When Brad wakes up, he will think that the DVDs are still at the house.",TRUE
526,TRUE,5/14/19 16:09,R_yVojdxA4Qc2SM6Z,22,Female,4,TRUE,1.129,4,0.358,4,cooperation,TRUE,"When Brad wakes up, he will think that the DVDs are still at the house.",TRUE
1530,TRUE,5/14/19 16:12,R_2uCgFaRmHUDhIf7,31,Male,4,TRUE,21.704,2,0,12,competition,TRUE,"When Brad wakes up, he will think that the DVDs are still at the house.",TRUE
697,TRUE,5/14/19 16:12,R_22WEl3oKB1yJlqu,32,Male,4,TRUE,1.867,5,0,20,cooperation,TRUE,"When Brad wakes up, he will think that the DVDs are still at the house.",TRUE
1231,TRUE,5/14/19 16:12,R_2VQh51rUDdZ9Jjj,34,Female,4,TRUE,2.127,2,1.668,15,neutral,TRUE,"When Brad wakes up, he will think that the DVDs are still at the house.",TRUE
1236,TRUE,5/14/19 16:16,R_2Etzf5ukQIjbtJC,33,Male,4,TRUE,1.248,7,1.292,24,neutral,TRUE,"When Brad wakes up, he will think that the DVDs are still at the house.",TRUE
716,TRUE,5/14/19 16:17,R_2aaaG4DS3K5xQKV,38,Male,4,TRUE,1.83,5,0,9,neutral,TRUE,"When Brad wakes up, he will think that the DVDs are still at the house.",TRUE
281,TRUE,5/14/19 16:18,R_1IaTnBTvxnhMUS8,24,Female,4,FALSE,1.401,3,0.704,19,cooperation,TRUE,"When Brad wakes up, he will think that the DVDs are still at the house.",FALSE
611,TRUE,5/14/19 16:23,R_su4ao8Mrwhsf4f7,30,Male,4,TRUE,1.439,7,0.538,24,cooperation,TRUE,"When Brad wakes up, he will think that the DVDs are still at the house.",TRUE
1915,TRUE,5/14/19 16:24,R_3PREu7zW7lf39D8,26,Male,4,TRUE,2.262,5,0,6,neutral,TRUE,"When Brad wakes up, he will think that the DVDs are still at the house.",TRUE
1626,TRUE,5/14/19 16:26,R_2EzAdUE0tbjp8v7,37,Male,4,TRUE,2.773,1,0,23,competition,TRUE,"When Brad wakes up, he will think that the DVDs are still at the house.",TRUE
552,TRUE,5/14/19 16:26,R_QfGskrDfHKZWl2h,20,Male,4,TRUE,1.099,7,0,20,cooperation,TRUE,"When Brad wakes up, he will think that the DVDs are still at the house.",TRUE
990,TRUE,5/14/19 16:29,R_3NXpuQFQ4bHgQRE,33,Female,4,TRUE,2.019,3,1.421,12,cooperation,TRUE,"When Brad wakes up, he will think that the DVDs are still at the house.",TRUE
1114,TRUE,5/14/19 16:30,R_AyCN2EJ5lU2nyYF,43,Female,4,TRUE,2.677,4,2.225,16,competition,TRUE,"When Brad wakes up, he will think that the DVDs are still at the house.",TRUE
713,TRUE,5/14/19 16:31,R_uftWlqmgubaOJ69,28,Female,4,TRUE,1.849,5,0,16,neutral,TRUE,"When Brad wakes up, he will think that the DVDs are still at the house.",TRUE
481,TRUE,5/14/19 16:32,R_3fW4slLzpd1kbI0,25,Female,4,TRUE,2.418,4,2.283,1,neutral,TRUE,"When Brad wakes up, he will think that the DVDs are still at the house.",TRUE
498,TRUE,5/14/19 16:35,R_2ztOw3MPuFgLpOW,43,Female,4,TRUE,0.894,7,0.383,30,cooperation,TRUE,"When Brad wakes up, he will think that the DVDs are still at the house.",TRUE
541,TRUE,5/14/19 16:35,R_25zKVzfW9MCpON7,22,Male,4,TRUE,1.545,1,0,25,competition,TRUE,"When Brad wakes up, he will think that the DVDs are still at the house.",TRUE
1060,TRUE,5/14/19 16:36,R_4Jlnqmgs0JqFgGZ,30,Male,4,TRUE,4.268,6,0,26,cooperation,TRUE,"When Brad wakes up, he will think that the DVDs are still at the house.",TRUE
1123,TRUE,5/14/19 16:37,R_2ciMm8WmFhV74X6,28,Female,4,TRUE,4.745,6,2.553,4,cooperation,TRUE,"When Brad wakes up, he will think that the DVDs are still at the house.",TRUE
1567,TRUE,5/14/19 16:39,R_1pAOZvGdKUuRHW1,61,Female,4,TRUE,2.172,7,3.03,10,cooperation,TRUE,"When Brad wakes up, he will think that the DVDs are still at the house.",TRUE
698,TRUE,5/14/19 16:39,R_2AZniJm3WwEQQYs,35,Female,4,TRUE,1.414,1,0.165,8,neutral,TRUE,"When Brad wakes up, he will think that the DVDs are still at the house.",TRUE
1017,TRUE,5/14/19 16:39,R_1JXakBB0ny6kFBn,43,Female,4,TRUE,3.052,3,1.998,30,neutral,TRUE,"When Brad wakes up, he will think that the DVDs are still at the house.",TRUE
825,TRUE,5/14/19 16:39,R_1FJ1RbaVvIJYun5,27,Male,4,TRUE,1.678,6,0,10,cooperation,TRUE,"When Brad wakes up, he will think that the DVDs are still at the house.",TRUE
1266,TRUE,5/14/19 16:42,R_27HyKcao8EEy0Ne,37,Male,4,TRUE,4.236,4,1.071,29,neutral,TRUE,"When Brad wakes up, he will think that the DVDs are still at the house.",TRUE
907,TRUE,5/14/19 16:43,R_RgGlpdV4JYbV52F,43,Female,4,TRUE,1.949,1,2.013,2,competition,TRUE,"When Brad wakes up, he will think that the DVDs are still at the house.",TRUE
819,TRUE,5/14/19 16:43,R_2vkOyanR6k1G6ya,28,Male,4,TRUE,1.463,2,0,19,competition,TRUE,"When Brad wakes up, he will think that the DVDs are still at the house.",TRUE
1481,TRUE,5/14/19 16:43,R_1r36C6RdKQM5ITH,39,Male,4,TRUE,2.189,6,2.709,15,cooperation,TRUE,"When Brad wakes up, he will think that the DVDs are still at the house.",TRUE
1025,TRUE,5/14/19 16:48,R_1rcc3VeMvr7F3K7,30,Male,4,TRUE,3.646,1,2.871,6,competition,TRUE,"When Brad wakes up, he will think that the DVDs are still at the house.",TRUE
862,TRUE,5/14/19 16:50,R_1Hocb5VQV8VP4S5,27,Female,4,FALSE,1.529,4,1.262,21,competition,TRUE,"When Brad wakes up, he will think that the DVDs are still at the house.",FALSE
1988,TRUE,5/14/19 16:54,R_OrjO7CVUB0Q5nzP,36,Female,4,TRUE,1.958,6,1.231,5,cooperation,TRUE,"When Brad wakes up, he will think that the DVDs are still at the house.",TRUE
1859,TRUE,5/14/19 16:54,R_2eatXQR06sgxECZ,46,Male,4,TRUE,2.191,5,3.732,30,neutral,TRUE,"When Brad wakes up, he will think that the DVDs are still at the house.",TRUE
672,TRUE,5/14/19 16:55,R_3iIszIiVZXbUOdu,35,Female,4,TRUE,1.466,4,1.021,21,neutral,TRUE,"When Brad wakes up, he will think that the DVDs are still at the house.",TRUE
883,TRUE,5/14/19 16:55,R_2eUsEhD0GaCB5zR,60,Male,4,TRUE,3.743,3,0,14,competition,TRUE,"When Brad wakes up, he will think that the DVDs are still at the house.",TRUE
1369,TRUE,5/14/19 16:58,R_2uxqBXluTbJKevZ,43,Female,4,TRUE,3.18,1,0.511,23,competition,TRUE,"When Brad wakes up, he will think that the DVDs are still at the house.",TRUE
610,TRUE,5/14/19 17:04,R_3enn41SwxDsrnfr,22,Female,4,TRUE,1.37,7,0,22,cooperation,TRUE,"When Brad wakes up, he will think that the DVDs are still at the house.",TRUE
1962,TRUE,5/14/19 17:06,R_3PHtv15K5tJpgoo,28,Male,4,TRUE,3.67,2,0,1,competition,TRUE,"When Brad wakes up, he will think that the DVDs are still at the house.",TRUE
1040,TRUE,5/14/19 17:28,R_2rAUh78NLhXbRGu,49,Female,4,TRUE,3.706,6,1.954,22,cooperation,TRUE,"When Brad wakes up, he will think that the DVDs are still at the house.",TRUE
1505,TRUE,5/14/19 17:35,R_1erPvc8JBTqHT91,25,Female,4,TRUE,2.113,1,0.958,12,competition,TRUE,"When Brad wakes up, he will think that the DVDs are still at the house.",TRUE
16044,TRUE,5/14/19 23:36,R_3lMGZY0jbuDADUu,37,Female,4,TRUE,2.365,3,0,22,neutral,TRUE,"When Brad wakes up, he will think that the DVDs are still at the house.",TRUE
579,TRUE,5/14/19 15:29,R_2DYMxUdsqW7urie,NA,Male,5,FALSE,0.914,5,1.116,12,neutral,TRUE,"While Davon is outside, he will think that his desk is cleared of any items.",FALSE
579,TRUE,5/14/19 15:29,R_3nMfbYgmeMsZrvT,29,Male,5,TRUE,2.685,2,0.617,13,cooperation,TRUE,"While Davon is outside, he will think that his desk is cleared of any items.",TRUE
551,TRUE,5/14/19 15:30,R_1Q3kb3QHK7VyE5w,30,Male,5,FALSE,2.115,3,0.513,19,neutral,TRUE,"While Davon is outside, he will think that his desk is cleared of any items.",FALSE
733,TRUE,5/14/19 15:30,R_3PnHRjcnKxu90Zm,25,Male,5,TRUE,3.864,5,1.413,10,cooperation,TRUE,"While Davon is outside, he will think that his desk is cleared of any items.",TRUE
680,TRUE,5/14/19 15:31,R_1od3IZBBcQ8uIKW,35,Male,5,TRUE,0.955,4,0,5,neutral,TRUE,"While Davon is outside, he will think that his desk is cleared of any items.",TRUE
768,TRUE,5/14/19 15:31,R_29n0nxx0pYvnTbf,NA,Female,5,TRUE,3.25,4,0,28,cooperation,TRUE,"While Davon is outside, he will think that his desk is cleared of any items.",TRUE
775,TRUE,5/14/19 15:31,R_vDoFAJWn3ficlc5,30,Female,5,FALSE,1.186,7,0.53,29,neutral,TRUE,"While Davon is outside, he will think that his desk is cleared of any items.",FALSE
535,TRUE,5/14/19 15:31,R_1P5IiJLkPGRcfiq,25,Male,5,TRUE,3.103,5,0,10,cooperation,TRUE,"While Davon is outside, he will think that his desk is cleared of any items.",TRUE
640,TRUE,5/14/19 15:33,R_3RkhbbvCfn0cyo8,33,Female,5,TRUE,1.761,3,1.102,5,neutral,TRUE,"While Davon is outside, he will think that his desk is cleared of any items.",TRUE
834,TRUE,5/14/19 15:35,R_6V9NBht1dZxbU2J,27,Male,5,FALSE,2.808,1,0.528,23,competition,TRUE,"While Davon is outside, he will think that his desk is cleared of any items.",FALSE
930,TRUE,5/14/19 15:35,R_UFRVby7h8t7VjHz,28,Male,5,TRUE,1.844,2,0.251,14,competition,TRUE,"While Davon is outside, he will think that his desk is cleared of any items.",TRUE
1038,TRUE,5/14/19 15:36,R_1N3vJDGAXY0GM2n,32,Female,5,TRUE,6.729,1,4.291,12,neutral,TRUE,"While Davon is outside, he will think that his desk is cleared of any items.",TRUE
733,TRUE,5/14/19 15:36,R_3lVvCsyyISloSBp,50,Female,5,FALSE,0.117,4,0.702,19,cooperation,TRUE,"While Davon is outside, he will think that his desk is cleared of any items.",FALSE
906,TRUE,5/14/19 15:37,R_qVfrw0StuNHWayZ,25,Female,5,TRUE,0,4,0,16,neutral,TRUE,"While Davon is outside, he will think that his desk is cleared of any items.",TRUE
1003,TRUE,5/14/19 15:38,R_2BaL8D4IySmLflo,69,Female,5,TRUE,4.82,3,4.07,12,cooperation,TRUE,"While Davon is outside, he will think that his desk is cleared of any items.",TRUE
597,TRUE,5/14/19 15:39,R_1Pc9cOk0l6A0h8S,28,Female,5,TRUE,1.114,1,0.308,29,competition,TRUE,"While Davon is outside, he will think that his desk is cleared of any items.",TRUE
1255,TRUE,5/14/19 15:40,R_2yjBy07pV5aTodV,61,Male,5,TRUE,7.282,1,0.794,18,competition,TRUE,"While Davon is outside, he will think that his desk is cleared of any items.",TRUE
920,TRUE,5/14/19 15:40,R_C4CAtlo7vvfNObD,35,Male,5,FALSE,2.165,7,0.388,29,cooperation,TRUE,"While Davon is outside, he will think that his desk is cleared of any items.",FALSE
1341,TRUE,5/14/19 15:41,R_1JXGXB9uKyABYsi,33,Male,5,FALSE,6.541,1,0.739,22,competition,TRUE,"While Davon is outside, he will think that his desk is cleared of any items.",FALSE
1333,TRUE,5/14/19 15:41,R_22LCMPNC6mifHiK,45,Male,5,TRUE,1.081,5,1.572,22,cooperation,TRUE,"While Davon is outside, he will think that his desk is cleared of any items.",TRUE
1083,TRUE,5/14/19 15:42,R_25ZcUMpbiKpeV3s,32,Male,5,TRUE,4.534,1,0,25,competition,TRUE,"While Davon is outside, he will think that his desk is cleared of any items.",TRUE
1175,TRUE,5/14/19 15:44,R_aY6g2ByMB4qKO2J,40,Male,5,TRUE,4.035,4,0,10,cooperation,TRUE,"While Davon is outside, he will think that his desk is cleared of any items.",TRUE
507,TRUE,5/14/19 15:45,R_2lvv85ZKMt5KE25,30,Male,5,TRUE,2.831,5,0,27,cooperation,TRUE,"While Davon is outside, he will think that his desk is cleared of any items.",TRUE
757,TRUE,5/14/19 15:45,R_3kol2JCP8rpesQJ,21,Male,5,TRUE,2.107,6,6.072,13,cooperation,TRUE,"While Davon is outside, he will think that his desk is cleared of any items.",TRUE
1186,TRUE,5/14/19 15:46,R_2vcWnChzOZMfBPi,56,Male,5,TRUE,7.404,2,1.473,12,competition,TRUE,"While Davon is outside, he will think that his desk is cleared of any items.",TRUE
369,TRUE,5/14/19 15:46,R_33qk6fuoaenveiB,29,Male,5,TRUE,2.838,1,1.386,2,competition,TRUE,"While Davon is outside, he will think that his desk is cleared of any items.",TRUE
357,TRUE,5/14/19 15:47,R_eVu78PIuCrJOPOp,27,Male,5,TRUE,0.947,2,0,7,competition,TRUE,"While Davon is outside, he will think that his desk is cleared of any items.",TRUE
1545,TRUE,5/14/19 15:47,R_27rIoDYd95Xzofm,33,Male,5,TRUE,4.878,6,3.374,28,cooperation,TRUE,"While Davon is outside, he will think that his desk is cleared of any items.",TRUE
1106,TRUE,5/14/19 15:48,R_1kFkiOFrtO9QsaN,27,Male,5,TRUE,4.356,3,2.762,2,neutral,TRUE,"While Davon is outside, he will think that his desk is cleared of any items.",TRUE
876,TRUE,5/14/19 15:48,R_1obBfD0fnpJu1qc,30,Male,5,TRUE,45.542,6,0.475,1,neutral,TRUE,"While Davon is outside, he will think that his desk is cleared of any items.",TRUE
1128,TRUE,5/14/19 15:48,R_2f1mnoVb9rkUCDM,58,Male,5,TRUE,3.952,4,1.684,12,neutral,TRUE,"While Davon is outside, he will think that his desk is cleared of any items.",TRUE
1265,TRUE,5/14/19 15:50,R_3ipQYCn84x6SPFy,55,Female,5,TRUE,4.642,3,1.336,13,neutral,TRUE,"While Davon is outside, he will think that his desk is cleared of any items.",TRUE
1377,TRUE,5/14/19 15:50,R_CetIIdJkszskoSJ,35,Male,5,TRUE,3.153,4,0.555,16,neutral,TRUE,"While Davon is outside, he will think that his desk is cleared of any items.",TRUE
907,TRUE,5/14/19 15:50,R_23WxnjIymLBMOLc,27,Female,5,FALSE,0.609,6,0,30,competition,TRUE,"While Davon is outside, he will think that his desk is cleared of any items.",FALSE
959,TRUE,5/14/19 15:51,R_0D8gcBPEOLTpuHT,28,Male,5,TRUE,2.595,7,0,11,neutral,TRUE,"While Davon is outside, he will think that his desk is cleared of any items.",TRUE
549,TRUE,5/14/19 15:52,R_1r6LGa91FM9pKJd,31,Male,5,TRUE,2.081,1,0,22,competition,TRUE,"While Davon is outside, he will think that his desk is cleared of any items.",TRUE
1411,TRUE,5/14/19 15:54,R_1Q4JlHjSTfYLh6W,32,Male,5,TRUE,3.222,1,0,2,competition,TRUE,"While Davon is outside, he will think that his desk is cleared of any items.",TRUE
755,TRUE,5/14/19 15:56,R_2OZMbYgsYCsUxuq,33,Male,5,TRUE,3.256,5,0,25,cooperation,TRUE,"While Davon is outside, he will think that his desk is cleared of any items.",TRUE
1151,TRUE,5/14/19 15:56,R_1Iy3JZKjpKtphoe,28,Male,5,TRUE,1.841,1,0,20,competition,TRUE,"While Davon is outside, he will think that his desk is cleared of any items.",TRUE
859,TRUE,5/14/19 15:56,R_BJK0CCdFIggs2Ih,31,Male,5,TRUE,2.687,3,0,23,neutral,TRUE,"While Davon is outside, he will think that his desk is cleared of any items.",TRUE
1607,TRUE,5/14/19 15:58,R_1CraoytTQtSdFMe,59,Female,5,TRUE,2.282,6,0,24,cooperation,TRUE,"While Davon is outside, he will think that his desk is cleared of any items.",TRUE
1419,TRUE,5/14/19 16:00,R_1DOph3TS2kLMloH,60,Male,5,TRUE,4.865,5,0,14,cooperation,TRUE,"While Davon is outside, he will think that his desk is cleared of any items.",TRUE
892,TRUE,5/14/19 16:02,R_WCYTKarVRY7loJj,59,Male,5,TRUE,3.791,5,0,10,cooperation,TRUE,"While Davon is outside, he will think that his desk is cleared of any items.",TRUE
362,TRUE,5/14/19 16:02,R_1jJLTVgtKZtgbZc,30,Female,5,TRUE,2.268,4,1.156,8,cooperation,TRUE,"While Davon is outside, he will think that his desk is cleared of any items.",TRUE
1549,TRUE,5/14/19 16:04,R_1gC7uL1hTOZoxLQ,30,Male,5,TRUE,5.379,3,2.1,16,neutral,TRUE,"While Davon is outside, he will think that his desk is cleared of any items.",TRUE
777,TRUE,5/14/19 16:06,R_2CB9I8sjBPestnU,32,Male,5,TRUE,2.511,4,1.04,6,neutral,TRUE,"While Davon is outside, he will think that his desk is cleared of any items.",TRUE
558,TRUE,5/14/19 16:07,R_w6oo2lORlkkwg6J,52,Male,5,FALSE,1.767,4,0.762,18,cooperation,TRUE,"While Davon is outside, he will think that his desk is cleared of any items.",FALSE
842,TRUE,5/14/19 16:07,R_1QFUsHLgI1PKzdX,33,Other,5,TRUE,1.758,1,0,26,competition,TRUE,"While Davon is outside, he will think that his desk is cleared of any items.",TRUE
994,TRUE,5/14/19 16:08,R_2w1zXkAmwMRLqbU,55,Male,5,TRUE,3.549,1,1.089,8,competition,TRUE,"While Davon is outside, he will think that his desk is cleared of any items.",TRUE
526,TRUE,5/14/19 16:09,R_yVojdxA4Qc2SM6Z,22,Female,5,TRUE,2.43,3,1.3,25,neutral,TRUE,"While Davon is outside, he will think that his desk is cleared of any items.",TRUE
1530,TRUE,5/14/19 16:12,R_2uCgFaRmHUDhIf7,31,Male,5,TRUE,19.114,3,3.096,21,cooperation,TRUE,"While Davon is outside, he will think that his desk is cleared of any items.",TRUE
697,TRUE,5/14/19 16:12,R_22WEl3oKB1yJlqu,32,Male,5,FALSE,1.797,3,0,3,neutral,TRUE,"While Davon is outside, he will think that his desk is cleared of any items.",FALSE
1231,TRUE,5/14/19 16:12,R_2VQh51rUDdZ9Jjj,34,Female,5,TRUE,2.881,4,0,5,cooperation,TRUE,"While Davon is outside, he will think that his desk is cleared of any items.",TRUE
1236,TRUE,5/14/19 16:16,R_2Etzf5ukQIjbtJC,33,Male,5,FALSE,1.791,7,0,19,cooperation,TRUE,"While Davon is outside, he will think that his desk is cleared of any items.",FALSE
716,TRUE,5/14/19 16:17,R_2aaaG4DS3K5xQKV,38,Male,5,TRUE,1.874,6,0,25,cooperation,TRUE,"While Davon is outside, he will think that his desk is cleared of any items.",TRUE
281,TRUE,5/14/19 16:18,R_1IaTnBTvxnhMUS8,24,Female,5,TRUE,0.388,3,0.771,24,neutral,TRUE,"While Davon is outside, he will think that his desk is cleared of any items.",TRUE
611,TRUE,5/14/19 16:23,R_su4ao8Mrwhsf4f7,30,Male,5,TRUE,1.816,3,0,22,neutral,TRUE,"While Davon is outside, he will think that his desk is cleared of any items.",TRUE
1915,TRUE,5/14/19 16:24,R_3PREu7zW7lf39D8,26,Male,5,TRUE,0.97,6,0,8,neutral,TRUE,"While Davon is outside, he will think that his desk is cleared of any items.",TRUE
1626,TRUE,5/14/19 16:26,R_2EzAdUE0tbjp8v7,37,Male,5,FALSE,7.687,7,1.629,21,cooperation,TRUE,"While Davon is outside, he will think that his desk is cleared of any items.",FALSE
552,TRUE,5/14/19 16:26,R_QfGskrDfHKZWl2h,20,Male,5,TRUE,1.811,3,0,15,neutral,TRUE,"While Davon is outside, he will think that his desk is cleared of any items.",TRUE
990,TRUE,5/14/19 16:29,R_3NXpuQFQ4bHgQRE,33,Female,5,FALSE,2.078,7,1.399,13,cooperation,TRUE,"While Davon is outside, he will think that his desk is cleared of any items.",FALSE
1114,TRUE,5/14/19 16:30,R_AyCN2EJ5lU2nyYF,43,Female,5,TRUE,5.912,4,0.928,17,neutral,TRUE,"While Davon is outside, he will think that his desk is cleared of any items.",TRUE
713,TRUE,5/14/19 16:31,R_uftWlqmgubaOJ69,28,Female,5,TRUE,2.476,5,2.273,3,cooperation,TRUE,"While Davon is outside, he will think that his desk is cleared of any items.",TRUE
481,TRUE,5/14/19 16:32,R_3fW4slLzpd1kbI0,25,Female,5,TRUE,1.84,1,0.693,29,competition,TRUE,"While Davon is outside, he will think that his desk is cleared of any items.",TRUE
498,TRUE,5/14/19 16:35,R_2ztOw3MPuFgLpOW,43,Female,5,TRUE,1.448,1,0.632,23,competition,TRUE,"While Davon is outside, he will think that his desk is cleared of any items.",TRUE
541,TRUE,5/14/19 16:35,R_25zKVzfW9MCpON7,22,Male,5,TRUE,2.743,6,0,4,neutral,TRUE,"While Davon is outside, he will think that his desk is cleared of any items.",TRUE
1060,TRUE,5/14/19 16:36,R_4Jlnqmgs0JqFgGZ,30,Male,5,FALSE,5.667,5,0,1,cooperation,TRUE,"While Davon is outside, he will think that his desk is cleared of any items.",FALSE
1123,TRUE,5/14/19 16:37,R_2ciMm8WmFhV74X6,28,Female,5,TRUE,4.665,5,3.215,6,cooperation,TRUE,"While Davon is outside, he will think that his desk is cleared of any items.",TRUE
1567,TRUE,5/14/19 16:39,R_1pAOZvGdKUuRHW1,61,Female,5,TRUE,6.783,1,0,16,competition,TRUE,"While Davon is outside, he will think that his desk is cleared of any items.",TRUE
698,TRUE,5/14/19 16:39,R_2AZniJm3WwEQQYs,35,Female,5,FALSE,5.389,5,0.53,17,competition,TRUE,"While Davon is outside, he will think that his desk is cleared of any items.",FALSE
1017,TRUE,5/14/19 16:39,R_1JXakBB0ny6kFBn,43,Female,5,TRUE,7.135,6,3.265,1,cooperation,TRUE,"While Davon is outside, he will think that his desk is cleared of any items.",TRUE
825,TRUE,5/14/19 16:39,R_1FJ1RbaVvIJYun5,27,Male,5,FALSE,2.495,1,0,27,competition,TRUE,"While Davon is outside, he will think that his desk is cleared of any items.",FALSE
1266,TRUE,5/14/19 16:42,R_27HyKcao8EEy0Ne,37,Male,5,TRUE,11.997,7,1.939,30,cooperation,TRUE,"While Davon is outside, he will think that his desk is cleared of any items.",TRUE
907,TRUE,5/14/19 16:43,R_RgGlpdV4JYbV52F,43,Female,5,TRUE,1.555,4,1.581,27,cooperation,TRUE,"While Davon is outside, he will think that his desk is cleared of any items.",TRUE
819,TRUE,5/14/19 16:43,R_2vkOyanR6k1G6ya,28,Male,5,TRUE,1.482,1,0,15,competition,TRUE,"While Davon is outside, he will think that his desk is cleared of any items.",TRUE
1481,TRUE,5/14/19 16:43,R_1r36C6RdKQM5ITH,39,Male,5,TRUE,4.467,1,1.385,14,competition,TRUE,"While Davon is outside, he will think that his desk is cleared of any items.",TRUE
1025,TRUE,5/14/19 16:48,R_1rcc3VeMvr7F3K7,30,Male,5,TRUE,3.641,1,0,13,neutral,TRUE,"While Davon is outside, he will think that his desk is cleared of any items.",TRUE
862,TRUE,5/14/19 16:50,R_1Hocb5VQV8VP4S5,27,Female,5,FALSE,1.603,7,1.448,23,neutral,TRUE,"While Davon is outside, he will think that his desk is cleared of any items.",FALSE
1988,TRUE,5/14/19 16:54,R_OrjO7CVUB0Q5nzP,36,Female,5,TRUE,1.511,7,0,15,cooperation,TRUE,"While Davon is outside, he will think that his desk is cleared of any items.",TRUE
1859,TRUE,5/14/19 16:54,R_2eatXQR06sgxECZ,46,Male,5,TRUE,3.247,4,3.601,5,neutral,TRUE,"While Davon is outside, he will think that his desk is cleared of any items.",TRUE
672,TRUE,5/14/19 16:55,R_3iIszIiVZXbUOdu,35,Female,5,TRUE,3.512,1,1.046,6,competition,TRUE,"While Davon is outside, he will think that his desk is cleared of any items.",TRUE
883,TRUE,5/14/19 16:55,R_2eUsEhD0GaCB5zR,60,Male,5,TRUE,2.258,1,1.502,11,competition,TRUE,"While Davon is outside, he will think that his desk is cleared of any items.",TRUE
1369,TRUE,5/14/19 16:58,R_2uxqBXluTbJKevZ,43,Female,5,TRUE,3.766,3,0,10,cooperation,TRUE,"While Davon is outside, he will think that his desk is cleared of any items.",TRUE
610,TRUE,5/14/19 17:04,R_3enn41SwxDsrnfr,22,Female,5,TRUE,2.733,4,0,1,cooperation,TRUE,"While Davon is outside, he will think that his desk is cleared of any items.",TRUE
1962,TRUE,5/14/19 17:06,R_3PHtv15K5tJpgoo,28,Male,5,FALSE,1.097,3,0.346,30,cooperation,TRUE,"While Davon is outside, he will think that his desk is cleared of any items.",FALSE
1040,TRUE,5/14/19 17:28,R_2rAUh78NLhXbRGu,49,Female,5,TRUE,6.048,1,1.495,4,competition,TRUE,"While Davon is outside, he will think that his desk is cleared of any items.",TRUE
1505,TRUE,5/14/19 17:35,R_1erPvc8JBTqHT91,25,Female,5,TRUE,4.949,2,0,22,cooperation,TRUE,"While Davon is outside, he will think that his desk is cleared of any items.",TRUE
16044,TRUE,5/14/19 23:36,R_3lMGZY0jbuDADUu,37,Female,5,TRUE,18.489,3,9.586,18,neutral,TRUE,"While Davon is outside, he will think that his desk is cleared of any items.",TRUE
579,TRUE,5/14/19 15:29,R_2DYMxUdsqW7urie,NA,Male,6,FALSE,1.311,4,0.961,24,neutral,TRUE,"While Trevor is away, he will think that his soup needs more spice.",FALSE
579,TRUE,5/14/19 15:29,R_3nMfbYgmeMsZrvT,29,Male,6,TRUE,2.188,1,0.7,11,competition,TRUE,"While Trevor is away, he will think that his soup needs more spice.",TRUE
551,TRUE,5/14/19 15:30,R_1Q3kb3QHK7VyE5w,30,Male,6,FALSE,3.476,1,0,1,competition,TRUE,"While Trevor is away, he will think that his soup needs more spice.",FALSE
733,TRUE,5/14/19 15:30,R_3PnHRjcnKxu90Zm,25,Male,6,TRUE,4.458,2,1.708,19,neutral,TRUE,"While Trevor is away, he will think that his soup needs more spice.",TRUE
680,TRUE,5/14/19 15:31,R_1od3IZBBcQ8uIKW,35,Male,6,TRUE,2.01,4,1.064,29,neutral,TRUE,"While Trevor is away, he will think that his soup needs more spice.",TRUE
768,TRUE,5/14/19 15:31,R_29n0nxx0pYvnTbf,NA,Female,6,TRUE,4.203,5,0,18,cooperation,TRUE,"While Trevor is away, he will think that his soup needs more spice.",TRUE
775,TRUE,5/14/19 15:31,R_vDoFAJWn3ficlc5,30,Female,6,FALSE,0.733,7,1.211,4,neutral,TRUE,"While Trevor is away, he will think that his soup needs more spice.",FALSE
535,TRUE,5/14/19 15:31,R_1P5IiJLkPGRcfiq,25,Male,6,TRUE,2.233,4,0,19,cooperation,TRUE,"While Trevor is away, he will think that his soup needs more spice.",TRUE
640,TRUE,5/14/19 15:33,R_3RkhbbvCfn0cyo8,33,Female,6,FALSE,2.229,6,0.701,24,neutral,TRUE,"While Trevor is away, he will think that his soup needs more spice.",FALSE
834,TRUE,5/14/19 15:35,R_6V9NBht1dZxbU2J,27,Male,6,TRUE,3.232,4,0,6,neutral,TRUE,"While Trevor is away, he will think that his soup needs more spice.",TRUE
930,TRUE,5/14/19 15:35,R_UFRVby7h8t7VjHz,28,Male,6,TRUE,4.345,4,2.454,5,cooperation,TRUE,"While Trevor is away, he will think that his soup needs more spice.",TRUE
1038,TRUE,5/14/19 15:36,R_1N3vJDGAXY0GM2n,32,Female,6,TRUE,12.462,1,0.983,8,competition,TRUE,"While Trevor is away, he will think that his soup needs more spice.",TRUE
733,TRUE,5/14/19 15:36,R_3lVvCsyyISloSBp,50,Female,6,TRUE,0.635,7,0.613,21,neutral,TRUE,"While Trevor is away, he will think that his soup needs more spice.",TRUE
906,TRUE,5/14/19 15:37,R_qVfrw0StuNHWayZ,25,Female,6,TRUE,0,1,0,18,competition,TRUE,"While Trevor is away, he will think that his soup needs more spice.",TRUE
1003,TRUE,5/14/19 15:38,R_2BaL8D4IySmLflo,69,Female,6,TRUE,11.959,4,1.171,28,cooperation,TRUE,"While Trevor is away, he will think that his soup needs more spice.",TRUE
597,TRUE,5/14/19 15:39,R_1Pc9cOk0l6A0h8S,28,Female,6,TRUE,1.152,5,0,8,cooperation,TRUE,"While Trevor is away, he will think that his soup needs more spice.",TRUE
1255,TRUE,5/14/19 15:40,R_2yjBy07pV5aTodV,61,Male,6,TRUE,2.975,6,2.918,7,cooperation,TRUE,"While Trevor is away, he will think that his soup needs more spice.",TRUE
920,TRUE,5/14/19 15:40,R_C4CAtlo7vvfNObD,35,Male,6,TRUE,5.489,3,1.549,7,competition,TRUE,"While Trevor is away, he will think that his soup needs more spice.",TRUE
1341,TRUE,5/14/19 15:41,R_1JXGXB9uKyABYsi,33,Male,6,TRUE,2.269,6,1.45,16,cooperation,TRUE,"While Trevor is away, he will think that his soup needs more spice.",TRUE
1333,TRUE,5/14/19 15:41,R_22LCMPNC6mifHiK,45,Male,6,TRUE,0.556,7,0.858,29,cooperation,TRUE,"While Trevor is away, he will think that his soup needs more spice.",TRUE
1083,TRUE,5/14/19 15:42,R_25ZcUMpbiKpeV3s,32,Male,6,TRUE,2.167,3,3.361,26,neutral,TRUE,"While Trevor is away, he will think that his soup needs more spice.",TRUE
1175,TRUE,5/14/19 15:44,R_aY6g2ByMB4qKO2J,40,Male,6,TRUE,5.502,5,3.209,16,neutral,TRUE,"While Trevor is away, he will think that his soup needs more spice.",TRUE
507,TRUE,5/14/19 15:45,R_2lvv85ZKMt5KE25,30,Male,6,TRUE,1.83,2,0,30,neutral,TRUE,"While Trevor is away, he will think that his soup needs more spice.",TRUE
757,TRUE,5/14/19 15:45,R_3kol2JCP8rpesQJ,21,Male,6,TRUE,2.018,1,0,21,competition,TRUE,"While Trevor is away, he will think that his soup needs more spice.",TRUE
1186,TRUE,5/14/19 15:46,R_2vcWnChzOZMfBPi,56,Male,6,TRUE,3.377,4,2.144,6,neutral,TRUE,"While Trevor is away, he will think that his soup needs more spice.",TRUE
369,TRUE,5/14/19 15:46,R_33qk6fuoaenveiB,29,Male,6,TRUE,0.915,4,0,30,competition,TRUE,"While Trevor is away, he will think that his soup needs more spice.",TRUE
357,TRUE,5/14/19 15:47,R_eVu78PIuCrJOPOp,27,Male,6,TRUE,2.426,2,0.916,3,neutral,TRUE,"While Trevor is away, he will think that his soup needs more spice.",TRUE
1545,TRUE,5/14/19 15:47,R_27rIoDYd95Xzofm,33,Male,6,FALSE,11.809,2,6.034,10,neutral,TRUE,"While Trevor is away, he will think that his soup needs more spice.",FALSE
1106,TRUE,5/14/19 15:48,R_1kFkiOFrtO9QsaN,27,Male,6,TRUE,3.241,3,3.019,25,cooperation,TRUE,"While Trevor is away, he will think that his soup needs more spice.",TRUE
876,TRUE,5/14/19 15:48,R_1obBfD0fnpJu1qc,30,Male,6,TRUE,0.163,6,0,27,competition,TRUE,"While Trevor is away, he will think that his soup needs more spice.",TRUE
1128,TRUE,5/14/19 15:48,R_2f1mnoVb9rkUCDM,58,Male,6,TRUE,2.983,1,1.467,18,competition,TRUE,"While Trevor is away, he will think that his soup needs more spice.",TRUE
1265,TRUE,5/14/19 15:50,R_3ipQYCn84x6SPFy,55,Female,6,TRUE,4.033,2,1.007,23,competition,TRUE,"While Trevor is away, he will think that his soup needs more spice.",TRUE
1377,TRUE,5/14/19 15:50,R_CetIIdJkszskoSJ,35,Male,6,TRUE,5.12,1,0.563,29,competition,TRUE,"While Trevor is away, he will think that his soup needs more spice.",TRUE
907,TRUE,5/14/19 15:50,R_23WxnjIymLBMOLc,27,Female,6,TRUE,0.967,4,0,17,neutral,TRUE,"While Trevor is away, he will think that his soup needs more spice.",TRUE
959,TRUE,5/14/19 15:51,R_0D8gcBPEOLTpuHT,28,Male,6,TRUE,3.801,7,0,2,competition,TRUE,"While Trevor is away, he will think that his soup needs more spice.",TRUE
549,TRUE,5/14/19 15:52,R_1r6LGa91FM9pKJd,31,Male,6,FALSE,1.426,1,0.711,30,competition,TRUE,"While Trevor is away, he will think that his soup needs more spice.",FALSE
1411,TRUE,5/14/19 15:54,R_1Q4JlHjSTfYLh6W,32,Male,6,FALSE,2.23,1,0,18,competition,TRUE,"While Trevor is away, he will think that his soup needs more spice.",FALSE
755,TRUE,5/14/19 15:56,R_2OZMbYgsYCsUxuq,33,Male,6,TRUE,1.406,1,0,3,competition,TRUE,"While Trevor is away, he will think that his soup needs more spice.",TRUE
1151,TRUE,5/14/19 15:56,R_1Iy3JZKjpKtphoe,28,Male,6,TRUE,1.482,3,0,13,neutral,TRUE,"While Trevor is away, he will think that his soup needs more spice.",TRUE
859,TRUE,5/14/19 15:56,R_BJK0CCdFIggs2Ih,31,Male,6,TRUE,4.229,5,0,21,neutral,TRUE,"While Trevor is away, he will think that his soup needs more spice.",TRUE
1607,TRUE,5/14/19 15:58,R_1CraoytTQtSdFMe,59,Female,6,TRUE,4.536,4,2.241,22,cooperation,TRUE,"While Trevor is away, he will think that his soup needs more spice.",TRUE
1419,TRUE,5/14/19 16:00,R_1DOph3TS2kLMloH,60,Male,6,TRUE,3.059,4,4.639,7,cooperation,TRUE,"While Trevor is away, he will think that his soup needs more spice.",TRUE
892,TRUE,5/14/19 16:02,R_WCYTKarVRY7loJj,59,Male,6,TRUE,4.599,3,7.383,21,neutral,TRUE,"While Trevor is away, he will think that his soup needs more spice.",TRUE
362,TRUE,5/14/19 16:02,R_1jJLTVgtKZtgbZc,30,Female,6,FALSE,1.871,5,0,25,cooperation,TRUE,"While Trevor is away, he will think that his soup needs more spice.",FALSE
1549,TRUE,5/14/19 16:04,R_1gC7uL1hTOZoxLQ,30,Male,6,TRUE,3.529,3,0,1,cooperation,TRUE,"While Trevor is away, he will think that his soup needs more spice.",TRUE
777,TRUE,5/14/19 16:06,R_2CB9I8sjBPestnU,32,Male,6,TRUE,0,5,2.185,18,cooperation,TRUE,"While Trevor is away, he will think that his soup needs more spice.",TRUE
558,TRUE,5/14/19 16:07,R_w6oo2lORlkkwg6J,52,Male,6,TRUE,0.761,4,1.006,21,competition,TRUE,"While Trevor is away, he will think that his soup needs more spice.",TRUE
842,TRUE,5/14/19 16:07,R_1QFUsHLgI1PKzdX,33,Other,6,TRUE,3.368,3,0,29,cooperation,TRUE,"While Trevor is away, he will think that his soup needs more spice.",TRUE
994,TRUE,5/14/19 16:08,R_2w1zXkAmwMRLqbU,55,Male,6,TRUE,2.4,2,3.077,19,neutral,TRUE,"While Trevor is away, he will think that his soup needs more spice.",TRUE
526,TRUE,5/14/19 16:09,R_yVojdxA4Qc2SM6Z,22,Female,6,TRUE,1.735,1,0.77,14,competition,TRUE,"While Trevor is away, he will think that his soup needs more spice.",TRUE
1530,TRUE,5/14/19 16:12,R_2uCgFaRmHUDhIf7,31,Male,6,FALSE,106.07,6,0,1,cooperation,TRUE,"While Trevor is away, he will think that his soup needs more spice.",FALSE
697,TRUE,5/14/19 16:12,R_22WEl3oKB1yJlqu,32,Male,6,TRUE,2.087,1,0,17,competition,TRUE,"While Trevor is away, he will think that his soup needs more spice.",TRUE
1231,TRUE,5/14/19 16:12,R_2VQh51rUDdZ9Jjj,34,Female,6,TRUE,2.044,5,0,6,neutral,TRUE,"While Trevor is away, he will think that his soup needs more spice.",TRUE
1236,TRUE,5/14/19 16:16,R_2Etzf5ukQIjbtJC,33,Male,6,FALSE,2.897,3,0,18,competition,TRUE,"While Trevor is away, he will think that his soup needs more spice.",FALSE
716,TRUE,5/14/19 16:17,R_2aaaG4DS3K5xQKV,38,Male,6,TRUE,2.31,3,0,23,cooperation,TRUE,"While Trevor is away, he will think that his soup needs more spice.",TRUE
281,TRUE,5/14/19 16:18,R_1IaTnBTvxnhMUS8,24,Female,6,TRUE,0.497,5,1.325,2,competition,TRUE,"While Trevor is away, he will think that his soup needs more spice.",TRUE
611,TRUE,5/14/19 16:23,R_su4ao8Mrwhsf4f7,30,Male,6,TRUE,1.801,1,0.749,30,competition,TRUE,"While Trevor is away, he will think that his soup needs more spice.",TRUE
1915,TRUE,5/14/19 16:24,R_3PREu7zW7lf39D8,26,Male,6,TRUE,1.63,5,0,18,competition,TRUE,"While Trevor is away, he will think that his soup needs more spice.",TRUE
1626,TRUE,5/14/19 16:26,R_2EzAdUE0tbjp8v7,37,Male,6,TRUE,2.71,4,1.534,13,neutral,TRUE,"While Trevor is away, he will think that his soup needs more spice.",TRUE
552,TRUE,5/14/19 16:26,R_QfGskrDfHKZWl2h,20,Male,6,TRUE,3.501,5,0,5,neutral,TRUE,"While Trevor is away, he will think that his soup needs more spice.",TRUE
990,TRUE,5/14/19 16:29,R_3NXpuQFQ4bHgQRE,33,Female,6,FALSE,1.885,3,0,21,neutral,TRUE,"While Trevor is away, he will think that his soup needs more spice.",FALSE
1114,TRUE,5/14/19 16:30,R_AyCN2EJ5lU2nyYF,43,Female,6,TRUE,3.026,4,1.856,19,cooperation,TRUE,"While Trevor is away, he will think that his soup needs more spice.",TRUE
713,TRUE,5/14/19 16:31,R_uftWlqmgubaOJ69,28,Female,6,TRUE,2.169,4,0,4,neutral,TRUE,"While Trevor is away, he will think that his soup needs more spice.",TRUE
481,TRUE,5/14/19 16:32,R_3fW4slLzpd1kbI0,25,Female,6,TRUE,1.33,1,1.106,6,competition,TRUE,"While Trevor is away, he will think that his soup needs more spice.",TRUE
498,TRUE,5/14/19 16:35,R_2ztOw3MPuFgLpOW,43,Female,6,TRUE,3.928,1,1.171,14,neutral,TRUE,"While Trevor is away, he will think that his soup needs more spice.",TRUE
541,TRUE,5/14/19 16:35,R_25zKVzfW9MCpON7,22,Male,6,TRUE,32.551,1,1.477,18,competition,TRUE,"While Trevor is away, he will think that his soup needs more spice.",TRUE
1060,TRUE,5/14/19 16:36,R_4Jlnqmgs0JqFgGZ,30,Male,6,TRUE,2.312,5,0,18,neutral,TRUE,"While Trevor is away, he will think that his soup needs more spice.",TRUE
1123,TRUE,5/14/19 16:37,R_2ciMm8WmFhV74X6,28,Female,6,TRUE,5.977,4,7.553,1,cooperation,TRUE,"While Trevor is away, he will think that his soup needs more spice.",TRUE
1567,TRUE,5/14/19 16:39,R_1pAOZvGdKUuRHW1,61,Female,6,TRUE,3.683,1,9.343,2,cooperation,TRUE,"While Trevor is away, he will think that his soup needs more spice.",TRUE
698,TRUE,5/14/19 16:39,R_2AZniJm3WwEQQYs,35,Female,6,FALSE,5.108,3,0.25,3,competition,TRUE,"While Trevor is away, he will think that his soup needs more spice.",FALSE
1017,TRUE,5/14/19 16:39,R_1JXakBB0ny6kFBn,43,Female,6,TRUE,2.701,2,0.756,24,neutral,TRUE,"While Trevor is away, he will think that his soup needs more spice.",TRUE
825,TRUE,5/14/19 16:39,R_1FJ1RbaVvIJYun5,27,Male,6,FALSE,2.695,3,0,13,neutral,TRUE,"While Trevor is away, he will think that his soup needs more spice.",FALSE
1266,TRUE,5/14/19 16:42,R_27HyKcao8EEy0Ne,37,Male,6,TRUE,7.18,5,2.915,4,cooperation,TRUE,"While Trevor is away, he will think that his soup needs more spice.",TRUE
907,TRUE,5/14/19 16:43,R_RgGlpdV4JYbV52F,43,Female,6,TRUE,1.655,3,3.128,28,cooperation,TRUE,"While Trevor is away, he will think that his soup needs more spice.",TRUE
819,TRUE,5/14/19 16:43,R_2vkOyanR6k1G6ya,28,Male,6,TRUE,1.632,6,0.244,29,cooperation,TRUE,"While Trevor is away, he will think that his soup needs more spice.",TRUE
1481,TRUE,5/14/19 16:43,R_1r36C6RdKQM5ITH,39,Male,6,TRUE,3.644,2,0,13,cooperation,TRUE,"While Trevor is away, he will think that his soup needs more spice.",TRUE
1025,TRUE,5/14/19 16:48,R_1rcc3VeMvr7F3K7,30,Male,6,TRUE,5.405,4,0,27,cooperation,TRUE,"While Trevor is away, he will think that his soup needs more spice.",TRUE
862,TRUE,5/14/19 16:50,R_1Hocb5VQV8VP4S5,27,Female,6,TRUE,6.169,5,1.468,24,neutral,TRUE,"While Trevor is away, he will think that his soup needs more spice.",TRUE
1988,TRUE,5/14/19 16:54,R_OrjO7CVUB0Q5nzP,36,Female,6,FALSE,4.11,3,24.479,4,neutral,TRUE,"While Trevor is away, he will think that his soup needs more spice.",FALSE
1859,TRUE,5/14/19 16:54,R_2eatXQR06sgxECZ,46,Male,6,TRUE,1.637,6,0,11,cooperation,TRUE,"While Trevor is away, he will think that his soup needs more spice.",TRUE
672,TRUE,5/14/19 16:55,R_3iIszIiVZXbUOdu,35,Female,6,TRUE,2.855,5,0,24,cooperation,TRUE,"While Trevor is away, he will think that his soup needs more spice.",TRUE
883,TRUE,5/14/19 16:55,R_2eUsEhD0GaCB5zR,60,Male,6,TRUE,11.244,3,3.906,22,neutral,TRUE,"While Trevor is away, he will think that his soup needs more spice.",TRUE
1369,TRUE,5/14/19 16:58,R_2uxqBXluTbJKevZ,43,Female,6,TRUE,30.2,4,34.4,9,neutral,TRUE,"While Trevor is away, he will think that his soup needs more spice.",TRUE
610,TRUE,5/14/19 17:04,R_3enn41SwxDsrnfr,22,Female,6,TRUE,1.393,4,0.304,17,neutral,TRUE,"While Trevor is away, he will think that his soup needs more spice.",TRUE
1962,TRUE,5/14/19 17:06,R_3PHtv15K5tJpgoo,28,Male,6,TRUE,1.044,2,0,26,competition,TRUE,"While Trevor is away, he will think that his soup needs more spice.",TRUE
1040,TRUE,5/14/19 17:28,R_2rAUh78NLhXbRGu,49,Female,6,TRUE,3.403,3,2.202,30,cooperation,TRUE,"While Trevor is away, he will think that his soup needs more spice.",TRUE
1505,TRUE,5/14/19 17:35,R_1erPvc8JBTqHT91,25,Female,6,TRUE,3.408,2,0.895,27,cooperation,TRUE,"While Trevor is away, he will think that his soup needs more spice.",TRUE
16044,TRUE,5/14/19 23:36,R_3lMGZY0jbuDADUu,37,Female,6,TRUE,25.37,4,7.35,15,neutral,TRUE,"While Trevor is away, he will think that his soup needs more spice.",TRUE
579,TRUE,5/14/19 15:29,R_2DYMxUdsqW7urie,NA,Male,7,TRUE,0.934,3,1.814,9,competition,FALSE,"While Paula is in class, she will think that the locker is locked.",FALSE
579,TRUE,5/14/19 15:29,R_3nMfbYgmeMsZrvT,29,Male,7,TRUE,1.338,1,0.256,26,competition,FALSE,"While Paula is in class, she will think that the locker is locked.",FALSE
551,TRUE,5/14/19 15:30,R_1Q3kb3QHK7VyE5w,30,Male,7,TRUE,4.29,7,0.856,12,cooperation,FALSE,"While Paula is in class, she will think that the locker is locked.",FALSE
733,TRUE,5/14/19 15:30,R_3PnHRjcnKxu90Zm,25,Male,7,FALSE,2.212,5,1.24,11,cooperation,FALSE,"While Paula is in class, she will think that the locker is locked.",TRUE
680,TRUE,5/14/19 15:31,R_1od3IZBBcQ8uIKW,35,Male,7,TRUE,1.348,4,0.728,8,neutral,FALSE,"While Paula is in class, she will think that the locker is locked.",FALSE
768,TRUE,5/14/19 15:31,R_29n0nxx0pYvnTbf,NA,Female,7,FALSE,1.921,4,0.883,23,neutral,FALSE,"While Paula is in class, she will think that the locker is locked.",TRUE
775,TRUE,5/14/19 15:31,R_vDoFAJWn3ficlc5,30,Female,7,TRUE,1.305,6,1.313,6,neutral,FALSE,"While Paula is in class, she will think that the locker is locked.",FALSE
535,TRUE,5/14/19 15:31,R_1P5IiJLkPGRcfiq,25,Male,7,FALSE,2.583,5,0,13,competition,FALSE,"While Paula is in class, she will think that the locker is locked.",TRUE
640,TRUE,5/14/19 15:33,R_3RkhbbvCfn0cyo8,33,Female,7,TRUE,2.049,7,0.102,12,cooperation,FALSE,"While Paula is in class, she will think that the locker is locked.",FALSE
834,TRUE,5/14/19 15:35,R_6V9NBht1dZxbU2J,27,Male,7,FALSE,0,7,0,1,competition,FALSE,"While Paula is in class, she will think that the locker is locked.",TRUE
930,TRUE,5/14/19 15:35,R_UFRVby7h8t7VjHz,28,Male,7,FALSE,2.281,4,0,15,neutral,FALSE,"While Paula is in class, she will think that the locker is locked.",TRUE
1038,TRUE,5/14/19 15:36,R_1N3vJDGAXY0GM2n,32,Female,7,FALSE,3.752,2,1.604,13,neutral,FALSE,"While Paula is in class, she will think that the locker is locked.",TRUE
733,TRUE,5/14/19 15:36,R_3lVvCsyyISloSBp,50,Female,7,FALSE,2.27,6,0.975,14,neutral,FALSE,"While Paula is in class, she will think that the locker is locked.",TRUE
906,TRUE,5/14/19 15:37,R_qVfrw0StuNHWayZ,25,Female,7,FALSE,0,4,0,29,neutral,FALSE,"While Paula is in class, she will think that the locker is locked.",TRUE
1003,TRUE,5/14/19 15:38,R_2BaL8D4IySmLflo,69,Female,7,FALSE,3.396,4,0,7,cooperation,FALSE,"While Paula is in class, she will think that the locker is locked.",TRUE
597,TRUE,5/14/19 15:39,R_1Pc9cOk0l6A0h8S,28,Female,7,FALSE,1.832,7,0.807,21,cooperation,FALSE,"While Paula is in class, she will think that the locker is locked.",TRUE
1255,TRUE,5/14/19 15:40,R_2yjBy07pV5aTodV,61,Male,7,FALSE,5.737,1,0,27,competition,FALSE,"While Paula is in class, she will think that the locker is locked.",TRUE
920,TRUE,5/14/19 15:40,R_C4CAtlo7vvfNObD,35,Male,7,TRUE,2.982,1,0,3,neutral,FALSE,"While Paula is in class, she will think that the locker is locked.",FALSE
1341,TRUE,5/14/19 15:41,R_1JXGXB9uKyABYsi,33,Male,7,FALSE,3.601,2,0,3,competition,FALSE,"While Paula is in class, she will think that the locker is locked.",TRUE
1333,TRUE,5/14/19 15:41,R_22LCMPNC6mifHiK,45,Male,7,TRUE,25.818,6,0,20,competition,FALSE,"While Paula is in class, she will think that the locker is locked.",FALSE
1083,TRUE,5/14/19 15:42,R_25ZcUMpbiKpeV3s,32,Male,7,FALSE,2.789,4,1.341,15,neutral,FALSE,"While Paula is in class, she will think that the locker is locked.",TRUE
1175,TRUE,5/14/19 15:44,R_aY6g2ByMB4qKO2J,40,Male,7,FALSE,2.048,2,0,13,competition,FALSE,"While Paula is in class, she will think that the locker is locked.",TRUE
507,TRUE,5/14/19 15:45,R_2lvv85ZKMt5KE25,30,Male,7,FALSE,1.842,7,0,11,cooperation,FALSE,"While Paula is in class, she will think that the locker is locked.",TRUE
757,TRUE,5/14/19 15:45,R_3kol2JCP8rpesQJ,21,Male,7,FALSE,2.163,1,0,29,competition,FALSE,"While Paula is in class, she will think that the locker is locked.",TRUE
1186,TRUE,5/14/19 15:46,R_2vcWnChzOZMfBPi,56,Male,7,FALSE,5.346,5,0,14,cooperation,FALSE,"While Paula is in class, she will think that the locker is locked.",TRUE
369,TRUE,5/14/19 15:46,R_33qk6fuoaenveiB,29,Male,7,TRUE,0.418,2,0,7,competition,FALSE,"While Paula is in class, she will think that the locker is locked.",FALSE
357,TRUE,5/14/19 15:47,R_eVu78PIuCrJOPOp,27,Male,7,FALSE,1.417,4,0,17,competition,FALSE,"While Paula is in class, she will think that the locker is locked.",TRUE
1545,TRUE,5/14/19 15:47,R_27rIoDYd95Xzofm,33,Male,7,FALSE,2.973,7,0,20,cooperation,FALSE,"While Paula is in class, she will think that the locker is locked.",TRUE
1106,TRUE,5/14/19 15:48,R_1kFkiOFrtO9QsaN,27,Male,7,FALSE,3.42,7,2.661,10,cooperation,FALSE,"While Paula is in class, she will think that the locker is locked.",TRUE
876,TRUE,5/14/19 15:48,R_1obBfD0fnpJu1qc,30,Male,7,TRUE,0.578,6,0,23,cooperation,FALSE,"While Paula is in class, she will think that the locker is locked.",FALSE
1128,TRUE,5/14/19 15:48,R_2f1mnoVb9rkUCDM,58,Male,7,FALSE,2.563,1,1.653,10,competition,FALSE,"While Paula is in class, she will think that the locker is locked.",TRUE
1265,TRUE,5/14/19 15:50,R_3ipQYCn84x6SPFy,55,Female,7,FALSE,3.288,5,5.334,18,neutral,FALSE,"While Paula is in class, she will think that the locker is locked.",TRUE
1377,TRUE,5/14/19 15:50,R_CetIIdJkszskoSJ,35,Male,7,FALSE,3.396,4,0.225,24,neutral,FALSE,"While Paula is in class, she will think that the locker is locked.",TRUE
907,TRUE,5/14/19 15:50,R_23WxnjIymLBMOLc,27,Female,7,FALSE,0.735,4,0,15,competition,FALSE,"While Paula is in class, she will think that the locker is locked.",TRUE
959,TRUE,5/14/19 15:51,R_0D8gcBPEOLTpuHT,28,Male,7,TRUE,3.128,1,0,27,cooperation,FALSE,"While Paula is in class, she will think that the locker is locked.",FALSE
549,TRUE,5/14/19 15:52,R_1r6LGa91FM9pKJd,31,Male,7,FALSE,2.187,1,0,10,competition,FALSE,"While Paula is in class, she will think that the locker is locked.",TRUE
1411,TRUE,5/14/19 15:54,R_1Q4JlHjSTfYLh6W,32,Male,7,FALSE,3.041,6,2.412,12,neutral,FALSE,"While Paula is in class, she will think that the locker is locked.",TRUE
755,TRUE,5/14/19 15:56,R_2OZMbYgsYCsUxuq,33,Male,7,FALSE,3.764,4,2.102,16,cooperation,FALSE,"While Paula is in class, she will think that the locker is locked.",TRUE
1151,TRUE,5/14/19 15:56,R_1Iy3JZKjpKtphoe,28,Male,7,FALSE,1.661,7,1.001,7,neutral,FALSE,"While Paula is in class, she will think that the locker is locked.",TRUE
859,TRUE,5/14/19 15:56,R_BJK0CCdFIggs2Ih,31,Male,7,FALSE,3.293,5,0.56,12,competition,FALSE,"While Paula is in class, she will think that the locker is locked.",TRUE
1607,TRUE,5/14/19 15:58,R_1CraoytTQtSdFMe,59,Female,7,FALSE,2.524,7,2.355,12,cooperation,FALSE,"While Paula is in class, she will think that the locker is locked.",TRUE
1419,TRUE,5/14/19 16:00,R_1DOph3TS2kLMloH,60,Male,7,FALSE,2.49,6,0,25,cooperation,FALSE,"While Paula is in class, she will think that the locker is locked.",TRUE
892,TRUE,5/14/19 16:02,R_WCYTKarVRY7loJj,59,Male,7,FALSE,2.614,1,0,13,competition,FALSE,"While Paula is in class, she will think that the locker is locked.",TRUE
362,TRUE,5/14/19 16:02,R_1jJLTVgtKZtgbZc,30,Female,7,TRUE,0.817,3,0,10,neutral,FALSE,"While Paula is in class, she will think that the locker is locked.",FALSE
1549,TRUE,5/14/19 16:04,R_1gC7uL1hTOZoxLQ,30,Male,7,TRUE,6.472,6,0,9,cooperation,FALSE,"While Paula is in class, she will think that the locker is locked.",FALSE
777,TRUE,5/14/19 16:06,R_2CB9I8sjBPestnU,32,Male,7,FALSE,2.67,4,0,11,neutral,FALSE,"While Paula is in class, she will think that the locker is locked.",TRUE
558,TRUE,5/14/19 16:07,R_w6oo2lORlkkwg6J,52,Male,7,TRUE,1.025,4,0.938,10,neutral,FALSE,"While Paula is in class, she will think that the locker is locked.",FALSE
842,TRUE,5/14/19 16:07,R_1QFUsHLgI1PKzdX,33,Other,7,FALSE,3.752,6,0,8,cooperation,FALSE,"While Paula is in class, she will think that the locker is locked.",TRUE
994,TRUE,5/14/19 16:08,R_2w1zXkAmwMRLqbU,55,Male,7,FALSE,2.891,6,1.765,10,neutral,FALSE,"While Paula is in class, she will think that the locker is locked.",TRUE
526,TRUE,5/14/19 16:09,R_yVojdxA4Qc2SM6Z,22,Female,7,FALSE,1.226,1,0.763,20,competition,FALSE,"While Paula is in class, she will think that the locker is locked.",TRUE
1530,TRUE,5/14/19 16:12,R_2uCgFaRmHUDhIf7,31,Male,7,FALSE,26.838,1,0,16,competition,FALSE,"While Paula is in class, she will think that the locker is locked.",TRUE
697,TRUE,5/14/19 16:12,R_22WEl3oKB1yJlqu,32,Male,7,TRUE,2.614,5,0,2,neutral,FALSE,"While Paula is in class, she will think that the locker is locked.",FALSE
1231,TRUE,5/14/19 16:12,R_2VQh51rUDdZ9Jjj,34,Female,7,FALSE,2.273,5,0,27,cooperation,FALSE,"While Paula is in class, she will think that the locker is locked.",TRUE
1236,TRUE,5/14/19 16:16,R_2Etzf5ukQIjbtJC,33,Male,7,FALSE,1.892,7,0.908,14,cooperation,FALSE,"While Paula is in class, she will think that the locker is locked.",TRUE
716,TRUE,5/14/19 16:17,R_2aaaG4DS3K5xQKV,38,Male,7,FALSE,2.654,1,0,7,competition,FALSE,"While Paula is in class, she will think that the locker is locked.",TRUE
281,TRUE,5/14/19 16:18,R_1IaTnBTvxnhMUS8,24,Female,7,TRUE,0.418,2,0,13,neutral,FALSE,"While Paula is in class, she will think that the locker is locked.",FALSE
611,TRUE,5/14/19 16:23,R_su4ao8Mrwhsf4f7,30,Male,7,FALSE,4.059,7,0.932,8,cooperation,FALSE,"While Paula is in class, she will think that the locker is locked.",TRUE
1915,TRUE,5/14/19 16:24,R_3PREu7zW7lf39D8,26,Male,7,TRUE,2.063,5,0,2,neutral,FALSE,"While Paula is in class, she will think that the locker is locked.",FALSE
1626,TRUE,5/14/19 16:26,R_2EzAdUE0tbjp8v7,37,Male,7,TRUE,5.371,7,4.273,7,neutral,FALSE,"While Paula is in class, she will think that the locker is locked.",FALSE
552,TRUE,5/14/19 16:26,R_QfGskrDfHKZWl2h,20,Male,7,FALSE,1.141,6,0,28,cooperation,FALSE,"While Paula is in class, she will think that the locker is locked.",TRUE
990,TRUE,5/14/19 16:29,R_3NXpuQFQ4bHgQRE,33,Female,7,FALSE,3.114,6,0,1,cooperation,FALSE,"While Paula is in class, she will think that the locker is locked.",TRUE
1114,TRUE,5/14/19 16:30,R_AyCN2EJ5lU2nyYF,43,Female,7,TRUE,5.169,4,1.269,24,neutral,FALSE,"While Paula is in class, she will think that the locker is locked.",FALSE
713,TRUE,5/14/19 16:31,R_uftWlqmgubaOJ69,28,Female,7,TRUE,2.121,4,5.933,11,neutral,FALSE,"While Paula is in class, she will think that the locker is locked.",FALSE
481,TRUE,5/14/19 16:32,R_3fW4slLzpd1kbI0,25,Female,7,FALSE,1.514,7,0.401,30,cooperation,FALSE,"While Paula is in class, she will think that the locker is locked.",TRUE
498,TRUE,5/14/19 16:35,R_2ztOw3MPuFgLpOW,43,Female,7,FALSE,2.99,1,1.377,17,competition,FALSE,"While Paula is in class, she will think that the locker is locked.",TRUE
541,TRUE,5/14/19 16:35,R_25zKVzfW9MCpON7,22,Male,7,FALSE,3.723,7,0,5,cooperation,FALSE,"While Paula is in class, she will think that the locker is locked.",TRUE
1060,TRUE,5/14/19 16:36,R_4Jlnqmgs0JqFgGZ,30,Male,7,FALSE,2.179,5,0,17,neutral,FALSE,"While Paula is in class, she will think that the locker is locked.",TRUE
1123,TRUE,5/14/19 16:37,R_2ciMm8WmFhV74X6,28,Female,7,FALSE,4.79,6,7.098,3,neutral,FALSE,"While Paula is in class, she will think that the locker is locked.",TRUE
1567,TRUE,5/14/19 16:39,R_1pAOZvGdKUuRHW1,61,Female,7,FALSE,2.264,5,0.947,30,neutral,FALSE,"While Paula is in class, she will think that the locker is locked.",TRUE
698,TRUE,5/14/19 16:39,R_2AZniJm3WwEQQYs,35,Female,7,FALSE,2.106,1,0.896,22,competition,FALSE,"While Paula is in class, she will think that the locker is locked.",TRUE
1017,TRUE,5/14/19 16:39,R_1JXakBB0ny6kFBn,43,Female,7,FALSE,2.31,1,0.437,25,competition,FALSE,"While Paula is in class, she will think that the locker is locked.",TRUE
825,TRUE,5/14/19 16:39,R_1FJ1RbaVvIJYun5,27,Male,7,FALSE,2.995,7,0,30,cooperation,FALSE,"While Paula is in class, she will think that the locker is locked.",TRUE
