Duration,Finished,RecordedDate,ResponseId,Age,Gender,item,TF,TF_RT,Nice,Nice_RT,trial,condition,Answer,Question,correct
296,TRUE,6/11/19 10:03,R_3nlt53Yxgvz7sUa,35,Male,1,TRUE,1,5,0,31,cooperation,TRUE,"While Sally is away, she will think that her ball is in the box.",TRUE
655,TRUE,6/11/19 10:10,R_ZLis8sRowpk9PvX,41,Female,1,TRUE,1.613,5,0.966,15,cooperation,TRUE,"While Sally is away, she will think that her ball is in the box.",TRUE
748,TRUE,6/11/19 10:10,R_5aKNWSi3ewXI0Br,23,Male,1,TRUE,2.005,1,0,29,neutral,TRUE,"While Sally is away, she will think that her ball is in the box.",TRUE
528,TRUE,6/11/19 10:11,R_73NCcJkqe8nX3pL,35,Male,1,FALSE,0.474,4,0,14,competition,TRUE,"While Sally is away, she will think that her ball is in the box.",FALSE
755,TRUE,6/11/19 10:11,R_1itjXKj7aJ26xlY,50,Male,1,TRUE,1.537,4,1.558,16,cooperation,TRUE,"While Sally is away, she will think that her ball is in the box.",TRUE
677,TRUE,6/11/19 10:11,R_2xEQOcbagTC5K31,27,Female,1,TRUE,2.053,7,1.774,29,cooperation,TRUE,"While Sally is away, she will think that her ball is in the box.",TRUE
772,TRUE,6/11/19 10:11,R_sjyOcu2i5Cs3KPD,40,Male,1,TRUE,2.978,6,1.06,11,cooperation,TRUE,"While Sally is away, she will think that her ball is in the box.",TRUE
735,TRUE,6/11/19 10:11,R_2DMiqHkr8WXICHg,32,Female,1,TRUE,1.648,2,0,6,competition,TRUE,"While Sally is away, she will think that her ball is in the box.",TRUE
500,TRUE,6/11/19 10:12,R_2tyaL54hsNnBGiE,35,Male,1,TRUE,3.876,4,0.694,3,neutral,TRUE,"While Sally is away, she will think that her ball is in the box.",TRUE
818,TRUE,6/11/19 10:12,R_Qh6cdqFytPFsV3P,28,Female,1,TRUE,3.136,4,5.632,11,neutral,TRUE,"While Sally is away, she will think that her ball is in the box.",TRUE
737,TRUE,6/11/19 10:12,R_3k7XpgJaA2P1mMl,29,Male,1,TRUE,2.222,3,0,16,competition,TRUE,"While Sally is away, she will think that her ball is in the box.",TRUE
831,TRUE,6/11/19 10:12,R_3n7UxfN5J3GD59s,55,Male,1,TRUE,2.1,4,3.675,26,neutral,TRUE,"While Sally is away, she will think that her ball is in the box.",TRUE
819,TRUE,6/11/19 10:12,R_2dHltfvDoR6dDRT,31,Male,1,TRUE,1,4,1.087,21,neutral,TRUE,"While Sally is away, she will think that her ball is in the box.",TRUE
764,TRUE,6/11/19 10:13,R_3JJylNort6ur6sS,21,Male,1,TRUE,1.527,2,1.09,8,neutral,TRUE,"While Sally is away, she will think that her ball is in the box.",TRUE
898,TRUE,6/11/19 10:13,R_2BsoiDyVxkWuZ8o,47,Male,1,TRUE,3.301,5,2.313,3,competition,TRUE,"While Sally is away, she will think that her ball is in the box.",TRUE
820,TRUE,6/11/19 10:14,R_21ooKFhcfIWZ74P,35,Male,1,TRUE,4.155,2,0.808,26,competition,TRUE,"While Sally is away, she will think that her ball is in the box.",TRUE
931,TRUE,6/11/19 10:14,R_UyANc1QsKeLFV4t,28,Female,1,TRUE,15.724,3,1.502,23,competition,TRUE,"While Sally is away, she will think that her ball is in the box.",TRUE
530,TRUE,6/11/19 10:15,R_1d148ARgkkhTuhj,31,Male,1,TRUE,1.065,1,0.146,30,competition,TRUE,"While Sally is away, she will think that her ball is in the box.",TRUE
997,TRUE,6/11/19 10:15,R_2z8inlLrpl77PQ7,30,Male,1,TRUE,1.891,3,3.168,24,competition,TRUE,"While Sally is away, she will think that her ball is in the box.",TRUE
956,TRUE,6/11/19 10:16,R_CdF5GMFiGS5KcHD,37,Male,1,TRUE,0.944,4,0.332,23,neutral,TRUE,"While Sally is away, she will think that her ball is in the box.",TRUE
1075,TRUE,6/11/19 10:16,R_2trOvSxSAJkEHCg,29,Male,1,TRUE,1.961,4,2.559,30,neutral,TRUE,"While Sally is away, she will think that her ball is in the box.",TRUE
959,TRUE,6/11/19 10:16,R_1myjjiv96Mndvet,41,Female,1,TRUE,8.808,1,1.37,1,competition,TRUE,"While Sally is away, she will think that her ball is in the box.",TRUE
1162,TRUE,6/11/19 10:18,R_1omSlECSpgsqhsR,28,Female,1,TRUE,3.258,6,0,22,cooperation,TRUE,"While Sally is away, she will think that her ball is in the box.",TRUE
1047,TRUE,6/11/19 10:18,R_2YtVD8wLevQUfn3,58,Female,1,TRUE,0.49,7,0.779,12,cooperation,TRUE,"While Sally is away, she will think that her ball is in the box.",TRUE
712,TRUE,6/11/19 10:18,R_pKjvBYAYxQE8WXL,30,Male,1,TRUE,1.193,4,0,22,neutral,TRUE,"While Sally is away, she will think that her ball is in the box.",TRUE
594,TRUE,6/11/19 10:21,R_8dj2lxJavrkg157,26,Male,1,TRUE,0.727,4,0,23,competition,TRUE,"While Sally is away, she will think that her ball is in the box.",TRUE
1438,TRUE,6/11/19 10:22,R_1IFpRvvaYecmO6u,39,Female,1,TRUE,0.637,4,0,18,competition,TRUE,"While Sally is away, she will think that her ball is in the box.",TRUE
946,TRUE,6/11/19 10:24,R_2aOYOkpwV5YFXyw,56,Female,1,TRUE,2.391,6,0,17,cooperation,TRUE,"While Sally is away, she will think that her ball is in the box.",TRUE
1583,TRUE,6/11/19 10:25,R_1d6q1wNaxE5Lxx8,55,Male,1,TRUE,3.915,4,2.076,24,cooperation,TRUE,"While Sally is away, she will think that her ball is in the box.",TRUE
706,TRUE,6/11/19 10:26,R_3nGjUrYlrB1utE8,29,Male,1,TRUE,1.068,5,0,7,cooperation,TRUE,"While Sally is away, she will think that her ball is in the box.",TRUE
631,TRUE,6/11/19 10:26,R_3FPZz0NRyA1ktiZ,36,Female,1,TRUE,3.349,6,0.551,17,cooperation,TRUE,"While Sally is away, she will think that her ball is in the box.",TRUE
802,TRUE,6/11/19 10:26,R_9SsAPK496CzasIF,57,Male,1,TRUE,1.483,6,0.756,23,cooperation,TRUE,"While Sally is away, she will think that her ball is in the box.",TRUE
1523,TRUE,6/11/19 10:26,R_3nMdAmRDcLsubDw,51,Male,1,TRUE,3.521,4,8.131,11,neutral,TRUE,"While Sally is away, she will think that her ball is in the box.",TRUE
360,TRUE,6/11/19 10:26,R_Atlru3d68LtFty9,25,Female,1,TRUE,2.517,4,0.153,3,competition,TRUE,"While Sally is away, she will think that her ball is in the box.",TRUE
759,TRUE,6/11/19 10:29,R_1imN1YnW2WzRUPb,28,Male,1,FALSE,1.386,5,0.577,24,cooperation,TRUE,"While Sally is away, she will think that her ball is in the box.",FALSE
957,TRUE,6/11/19 10:29,R_2zSWMEDaoL1SOAu,31,Male,1,TRUE,1.421,1,2.345,26,competition,TRUE,"While Sally is away, she will think that her ball is in the box.",TRUE
889,TRUE,6/11/19 10:29,R_3nDf4drFoPVOrBw,25,Male,1,TRUE,2.221,4,0,21,neutral,TRUE,"While Sally is away, she will think that her ball is in the box.",TRUE
997,TRUE,6/11/19 10:29,R_2VEIeNgMCWDD6PI,53,Male,1,TRUE,3.845,2,2.94,8,competition,TRUE,"While Sally is away, she will think that her ball is in the box.",TRUE
794,TRUE,6/11/19 10:33,R_2TRWr29U58Mi2vd,35,Female,1,TRUE,2.49,6,0,23,cooperation,TRUE,"While Sally is away, she will think that her ball is in the box.",TRUE
1070,TRUE,6/11/19 10:33,R_29blHmruFIqdVET,24,Female,1,TRUE,2.815,2,1.481,24,competition,TRUE,"While Sally is away, she will think that her ball is in the box.",TRUE
947,TRUE,6/11/19 10:34,R_3e91lKVZof2U9WM,56,Female,1,TRUE,13.04,6,1.3,10,cooperation,TRUE,"While Sally is away, she will think that her ball is in the box.",TRUE
1276,TRUE,6/11/19 10:34,R_9uV7FqusAsrI1ax,42,Female,1,TRUE,1.773,4,1.47,29,competition,TRUE,"While Sally is away, she will think that her ball is in the box.",TRUE
2004,TRUE,6/11/19 10:36,R_2bZfbFlc8rrkvRA,59,Female,1,TRUE,4.297,4,1.273,23,neutral,TRUE,"While Sally is away, she will think that her ball is in the box.",TRUE
892,TRUE,6/11/19 10:36,R_8Hck8ZQYc8I6p5T,38,Male,1,TRUE,10.032,3,2.748,21,competition,TRUE,"While Sally is away, she will think that her ball is in the box.",TRUE
2077,TRUE,6/11/19 10:37,R_RhrDJ0N4AIeK8KJ,51,Female,1,TRUE,4.083,7,1.992,23,cooperation,TRUE,"While Sally is away, she will think that her ball is in the box.",TRUE
1668,TRUE,6/11/19 10:38,R_2YwWGMiMlgEZ760,32,Female,1,TRUE,1.483,4,2.066,20,neutral,TRUE,"While Sally is away, she will think that her ball is in the box.",TRUE
901,TRUE,6/11/19 10:39,R_1JILVkssYD1rZln,36,Female,1,TRUE,1.898,1,0.704,8,competition,TRUE,"While Sally is away, she will think that her ball is in the box.",TRUE
689,TRUE,6/11/19 10:39,R_czK87MCE4yRGCoV,41,Male,1,TRUE,1.634,6,0,19,cooperation,TRUE,"While Sally is away, she will think that her ball is in the box.",TRUE
1550,TRUE,6/11/19 10:39,R_3GDQqDVIwWtr9nA,28,Male,1,TRUE,6.784,5,3.864,17,cooperation,TRUE,"While Sally is away, she will think that her ball is in the box.",TRUE
801,TRUE,6/11/19 10:42,R_3kmEB58BUmq91w0,46,Male,1,TRUE,1.994,7,0,10,cooperation,TRUE,"While Sally is away, she will think that her ball is in the box.",TRUE
1724,TRUE,6/11/19 10:43,R_10P35mcLAnwKhWy,50,Female,1,TRUE,3.728,7,1.154,23,cooperation,TRUE,"While Sally is away, she will think that her ball is in the box.",TRUE
286,TRUE,6/11/19 10:44,R_3OdkpJq3hbsVRWE,27,Male,1,TRUE,0.457,5,0,10,neutral,TRUE,"While Sally is away, she will think that her ball is in the box.",TRUE
960,TRUE,6/11/19 10:44,R_3e9ojOp1TeKv1qZ,34,Male,1,TRUE,2.4,7,3.288,13,cooperation,TRUE,"While Sally is away, she will think that her ball is in the box.",TRUE
2747,TRUE,6/11/19 10:44,R_1Lkjbw3WfVXlS9d,26,Female,1,TRUE,1.713,5,0.577,11,cooperation,TRUE,"While Sally is away, she will think that her ball is in the box.",TRUE
1690,TRUE,6/11/19 10:45,R_2cmKsniFFYSx1jH,30,Male,1,TRUE,1.549,6,0,10,cooperation,TRUE,"While Sally is away, she will think that her ball is in the box.",TRUE
655,TRUE,6/11/19 10:46,R_1DwKQDIzaUD1B7l,51,Female,1,TRUE,1.359,7,1.753,3,cooperation,TRUE,"While Sally is away, she will think that her ball is in the box.",TRUE
2643,TRUE,6/11/19 10:47,R_269ALNhnBlclbkb,40,Male,1,TRUE,8.324,3,10.958,31,competition,TRUE,"While Sally is away, she will think that her ball is in the box.",TRUE
886,TRUE,6/11/19 10:47,R_2uCckPWkBCKBxYk,64,Female,1,TRUE,1.812,5,1.35,3,neutral,TRUE,"While Sally is away, she will think that her ball is in the box.",TRUE
265,TRUE,6/11/19 10:48,R_1I3QgMMx9Y6yKXx,22,Male,1,FALSE,0.536,2,0,18,cooperation,TRUE,"While Sally is away, she will think that her ball is in the box.",FALSE
1613,TRUE,6/11/19 10:48,R_3DkcaumZGBTLTE8,28,Female,1,TRUE,3.011,5,1.4,16,cooperation,TRUE,"While Sally is away, she will think that her ball is in the box.",TRUE
470,TRUE,6/11/19 10:49,R_3fqs8BUhsK3xzOP,25,Male,1,TRUE,1.901,4,0.828,12,cooperation,TRUE,"While Sally is away, she will think that her ball is in the box.",TRUE
808,TRUE,6/11/19 10:49,R_x3LKJl1FJ13UY9P,45,Female,1,TRUE,3.791,4,1.834,14,competition,TRUE,"While Sally is away, she will think that her ball is in the box.",TRUE
708,TRUE,6/11/19 10:50,R_eyyWjPN9qCL2qwp,31,Male,1,TRUE,0,6,5.375,2,cooperation,TRUE,"While Sally is away, she will think that her ball is in the box.",TRUE
822,TRUE,6/11/19 10:50,R_2f0Xuu8UZgaJ119,21,Male,1,TRUE,0.283,3,0,31,competition,TRUE,"While Sally is away, she will think that her ball is in the box.",TRUE
811,TRUE,6/11/19 10:53,R_3JC8SnUEgNXXiMQ,34,Female,1,FALSE,2.594,1,0,22,competition,TRUE,"While Sally is away, she will think that her ball is in the box.",FALSE
1472,TRUE,6/11/19 10:54,R_1rNFgXtar6CITN9,31,Male,1,TRUE,0.891,4,0,8,competition,TRUE,"While Sally is away, she will think that her ball is in the box.",TRUE
1374,TRUE,6/11/19 10:56,R_2PpujFAMLP4n0Lu,58,Male,1,TRUE,2.871,3,2.67,14,neutral,TRUE,"While Sally is away, she will think that her ball is in the box.",TRUE
936,TRUE,6/11/19 10:56,R_0oKtUCMX4aZ2WPv,36,Female,1,TRUE,3.853,4,4.956,3,neutral,TRUE,"While Sally is away, she will think that her ball is in the box.",TRUE
1647,TRUE,6/11/19 10:57,R_30d8QsJfIkiO7F8,22,Female,1,TRUE,4.84,4,0.916,22,cooperation,TRUE,"While Sally is away, she will think that her ball is in the box.",TRUE
1250,TRUE,6/11/19 11:04,R_YR2Kh4aQNWGzOBr,56,Male,1,TRUE,2.664,4,1.608,31,neutral,TRUE,"While Sally is away, she will think that her ball is in the box.",TRUE
698,TRUE,6/11/19 11:08,R_e52J1yxiPEYzG5r,38,Female,1,TRUE,1.432,6,0.967,25,cooperation,TRUE,"While Sally is away, she will think that her ball is in the box.",TRUE
766,TRUE,6/11/19 11:10,R_RJFMoJKmwY9AKMp,33,Male,1,TRUE,1.863,4,0,22,cooperation,TRUE,"While Sally is away, she will think that her ball is in the box.",TRUE
404,TRUE,6/11/19 11:11,R_2VKNQmHBKv3OwAC,30,Female,1,TRUE,1.193,3,0,31,competition,TRUE,"While Sally is away, she will think that her ball is in the box.",TRUE
827,TRUE,6/11/19 11:13,R_WlKmaf9xWFq8VGh,33,Male,1,TRUE,2.03,3,0.698,22,neutral,TRUE,"While Sally is away, she will think that her ball is in the box.",TRUE
2485,TRUE,6/11/19 11:14,R_3k54gz7YctGkmcr,40,Female,1,TRUE,1.027,6,1.405,13,cooperation,TRUE,"While Sally is away, she will think that her ball is in the box.",TRUE
1014,TRUE,6/11/19 11:17,R_3dLGDATDaJjUZFG,43,Female,1,TRUE,3.875,4,2.22,4,competition,TRUE,"While Sally is away, she will think that her ball is in the box.",TRUE
1526,TRUE,6/11/19 11:21,R_1rxEVsAJQmRUEtw,34,Female,1,TRUE,2.177,4,0.995,22,neutral,TRUE,"While Sally is away, she will think that her ball is in the box.",TRUE
2562,TRUE,6/11/19 11:24,R_vP6DUbkLNf63fNv,29,Male,1,TRUE,1.196,5,0.692,10,cooperation,TRUE,"While Sally is away, she will think that her ball is in the box.",TRUE
726,TRUE,6/11/19 11:24,R_2rwv5g0HvjCMINH,31,Female,1,TRUE,0.73,4,1.302,14,neutral,TRUE,"While Sally is away, she will think that her ball is in the box.",TRUE
1294,TRUE,6/11/19 11:26,R_2VI1XbZTJLYiBsC,52,Female,1,TRUE,6.313,2,6.988,4,competition,TRUE,"While Sally is away, she will think that her ball is in the box.",TRUE
1357,TRUE,6/11/19 11:27,R_3sgCUVQuqNCS49z,28,Male,1,TRUE,1.605,4,0,8,competition,TRUE,"While Sally is away, she will think that her ball is in the box.",TRUE
1092,TRUE,6/11/19 11:28,R_sTeABaS570NXdzX,32,Male,1,TRUE,2.358,1,0,15,neutral,TRUE,"While Sally is away, she will think that her ball is in the box.",TRUE
756,TRUE,6/11/19 11:32,R_1JOwHmzDAvkXI0A,33,Male,1,TRUE,0,3,0,24,cooperation,TRUE,"While Sally is away, she will think that her ball is in the box.",TRUE
443,TRUE,6/11/19 11:34,R_31RgK3UZ74hAawa,25,Male,1,TRUE,0.967,4,0,15,neutral,TRUE,"While Sally is away, she will think that her ball is in the box.",TRUE
1093,TRUE,6/11/19 11:35,R_1lxvJfgZkNZLDrv,47,Female,1,FALSE,7.81,3,2.799,3,competition,TRUE,"While Sally is away, she will think that her ball is in the box.",FALSE
642,TRUE,6/11/19 11:38,R_2YzzmFn7hxPlU3P,31,Female,1,FALSE,1.756,5,0,1,neutral,TRUE,"While Sally is away, she will think that her ball is in the box.",FALSE
1111,TRUE,6/11/19 11:42,R_2dQgtgvLUN4VOnC,19,Female,1,TRUE,2.375,3,0,22,competition,TRUE,"While Sally is away, she will think that her ball is in the box.",TRUE
1638,TRUE,6/11/19 11:43,R_3MAlInCEGkDn9q6,44,Male,1,TRUE,2.088,4,1.745,17,neutral,TRUE,"While Sally is away, she will think that her ball is in the box.",TRUE
643,TRUE,6/11/19 11:48,R_tXndXrczjfmXjpv,44,Male,1,TRUE,1.536,2,1.077,16,cooperation,TRUE,"While Sally is away, she will think that her ball is in the box.",TRUE
609,TRUE,6/11/19 11:59,R_ZwU8GWTWZK6EAxP,37,Female,1,TRUE,1.767,2,1.45,3,competition,TRUE,"While Sally is away, she will think that her ball is in the box.",TRUE
1211,TRUE,6/11/19 11:59,R_2BtDYM5U0ZrGCUB,45,Female,1,TRUE,17.432,6,3.588,21,cooperation,TRUE,"While Sally is away, she will think that her ball is in the box.",TRUE
1037,TRUE,6/11/19 12:05,R_2YyA7VHI4VbWKr3,33,Male,1,TRUE,1.672,2,0.951,10,competition,TRUE,"While Sally is away, she will think that her ball is in the box.",TRUE
1552,TRUE,6/11/19 12:41,R_1MM3vx8EaIJeH6y,33,Male,1,TRUE,1.831,5,0,20,cooperation,TRUE,"While Sally is away, she will think that her ball is in the box.",TRUE
793,TRUE,6/11/19 12:49,R_yvSkxw8Y8PIpXbP,58,Female,1,TRUE,2.331,3,3.445,31,competition,TRUE,"While Sally is away, she will think that her ball is in the box.",TRUE
1000,TRUE,6/11/19 13:37,R_25YBNmGFBPU4uAS,21,Male,1,TRUE,2.533,4,0,5,neutral,TRUE,"While Sally is away, she will think that her ball is in the box.",TRUE
296,TRUE,6/11/19 10:03,R_3nlt53Yxgvz7sUa,35,Male,2,FALSE,0.575,5,0.19,8,neutral,TRUE,"While Lucy is in the attic, she will think that her keep pile is still on her bed.",FALSE
655,TRUE,6/11/19 10:10,R_ZLis8sRowpk9PvX,41,Female,2,TRUE,1.85,4,2.452,13,cooperation,TRUE,"While Lucy is in the attic, she will think that her keep pile is still on her bed.",TRUE
748,TRUE,6/11/19 10:10,R_5aKNWSi3ewXI0Br,23,Male,2,TRUE,1.113,2,0,16,neutral,TRUE,"While Lucy is in the attic, she will think that her keep pile is still on her bed.",TRUE
528,TRUE,6/11/19 10:11,R_73NCcJkqe8nX3pL,35,Male,2,TRUE,0.264,5,0,9,cooperation,TRUE,"While Lucy is in the attic, she will think that her keep pile is still on her bed.",TRUE
755,TRUE,6/11/19 10:11,R_1itjXKj7aJ26xlY,50,Male,2,FALSE,1.05,4,0,21,neutral,TRUE,"While Lucy is in the attic, she will think that her keep pile is still on her bed.",FALSE
677,TRUE,6/11/19 10:11,R_2xEQOcbagTC5K31,27,Female,2,TRUE,1.911,1,0,18,competition,TRUE,"While Lucy is in the attic, she will think that her keep pile is still on her bed.",TRUE
772,TRUE,6/11/19 10:11,R_sjyOcu2i5Cs3KPD,40,Male,2,TRUE,4.105,4,0,27,neutral,TRUE,"While Lucy is in the attic, she will think that her keep pile is still on her bed.",TRUE
735,TRUE,6/11/19 10:11,R_2DMiqHkr8WXICHg,32,Female,2,TRUE,1.937,3,1.058,13,neutral,TRUE,"While Lucy is in the attic, she will think that her keep pile is still on her bed.",TRUE
500,TRUE,6/11/19 10:12,R_2tyaL54hsNnBGiE,35,Male,2,TRUE,2.889,5,1.016,7,cooperation,TRUE,"While Lucy is in the attic, she will think that her keep pile is still on her bed.",TRUE
818,TRUE,6/11/19 10:12,R_Qh6cdqFytPFsV3P,28,Female,2,TRUE,3.354,1,0,31,competition,TRUE,"While Lucy is in the attic, she will think that her keep pile is still on her bed.",TRUE
737,TRUE,6/11/19 10:12,R_3k7XpgJaA2P1mMl,29,Male,2,TRUE,2.092,4,0,30,cooperation,TRUE,"While Lucy is in the attic, she will think that her keep pile is still on her bed.",TRUE
831,TRUE,6/11/19 10:12,R_3n7UxfN5J3GD59s,55,Male,2,TRUE,4.978,4,2.735,8,competition,TRUE,"While Lucy is in the attic, she will think that her keep pile is still on her bed.",TRUE
819,TRUE,6/11/19 10:12,R_2dHltfvDoR6dDRT,31,Male,2,TRUE,1.224,4,1.494,19,cooperation,TRUE,"While Lucy is in the attic, she will think that her keep pile is still on her bed.",TRUE
764,TRUE,6/11/19 10:13,R_3JJylNort6ur6sS,21,Male,2,TRUE,1.947,1,0,10,competition,TRUE,"While Lucy is in the attic, she will think that her keep pile is still on her bed.",TRUE
898,TRUE,6/11/19 10:13,R_2BsoiDyVxkWuZ8o,47,Male,2,TRUE,3.183,4,2.265,21,neutral,TRUE,"While Lucy is in the attic, she will think that her keep pile is still on her bed.",TRUE
820,TRUE,6/11/19 10:14,R_21ooKFhcfIWZ74P,35,Male,2,TRUE,1.114,4,0.642,12,cooperation,TRUE,"While Lucy is in the attic, she will think that her keep pile is still on her bed.",TRUE
931,TRUE,6/11/19 10:14,R_UyANc1QsKeLFV4t,28,Female,2,TRUE,2.524,3,1.44,12,competition,TRUE,"While Lucy is in the attic, she will think that her keep pile is still on her bed.",TRUE
530,TRUE,6/11/19 10:15,R_1d148ARgkkhTuhj,31,Male,2,TRUE,2.926,2,0.416,5,neutral,TRUE,"While Lucy is in the attic, she will think that her keep pile is still on her bed.",TRUE
997,TRUE,6/11/19 10:15,R_2z8inlLrpl77PQ7,30,Male,2,TRUE,2.09,5,2.261,8,cooperation,TRUE,"While Lucy is in the attic, she will think that her keep pile is still on her bed.",TRUE
956,TRUE,6/11/19 10:16,R_CdF5GMFiGS5KcHD,37,Male,2,TRUE,2.021,4,0,16,neutral,TRUE,"While Lucy is in the attic, she will think that her keep pile is still on her bed.",TRUE
1075,TRUE,6/11/19 10:16,R_2trOvSxSAJkEHCg,29,Male,2,TRUE,2.054,5,0,25,neutral,TRUE,"While Lucy is in the attic, she will think that her keep pile is still on her bed.",TRUE
959,TRUE,6/11/19 10:16,R_1myjjiv96Mndvet,41,Female,2,TRUE,1.873,6,1.342,25,cooperation,TRUE,"While Lucy is in the attic, she will think that her keep pile is still on her bed.",TRUE
1162,TRUE,6/11/19 10:18,R_1omSlECSpgsqhsR,28,Female,2,FALSE,2.543,6,0,26,cooperation,TRUE,"While Lucy is in the attic, she will think that her keep pile is still on her bed.",FALSE
1047,TRUE,6/11/19 10:18,R_2YtVD8wLevQUfn3,58,Female,2,TRUE,4.391,7,0.157,17,competition,TRUE,"While Lucy is in the attic, she will think that her keep pile is still on her bed.",TRUE
712,TRUE,6/11/19 10:18,R_pKjvBYAYxQE8WXL,30,Male,2,TRUE,1.958,4,0.369,21,neutral,TRUE,"While Lucy is in the attic, she will think that her keep pile is still on her bed.",TRUE
594,TRUE,6/11/19 10:21,R_8dj2lxJavrkg157,26,Male,2,TRUE,1.599,1,0.239,9,competition,TRUE,"While Lucy is in the attic, she will think that her keep pile is still on her bed.",TRUE
1438,TRUE,6/11/19 10:22,R_1IFpRvvaYecmO6u,39,Female,2,TRUE,1.447,5,0,23,cooperation,TRUE,"While Lucy is in the attic, she will think that her keep pile is still on her bed.",TRUE
946,TRUE,6/11/19 10:24,R_2aOYOkpwV5YFXyw,56,Female,2,TRUE,0,3,2.426,14,competition,TRUE,"While Lucy is in the attic, she will think that her keep pile is still on her bed.",TRUE
1583,TRUE,6/11/19 10:25,R_1d6q1wNaxE5Lxx8,55,Male,2,TRUE,2.065,5,1.075,20,cooperation,TRUE,"While Lucy is in the attic, she will think that her keep pile is still on her bed.",TRUE
706,TRUE,6/11/19 10:26,R_3nGjUrYlrB1utE8,29,Male,2,TRUE,2.45,6,0,20,neutral,TRUE,"While Lucy is in the attic, she will think that her keep pile is still on her bed.",TRUE
631,TRUE,6/11/19 10:26,R_3FPZz0NRyA1ktiZ,36,Female,2,TRUE,1.966,5,0.669,12,cooperation,TRUE,"While Lucy is in the attic, she will think that her keep pile is still on her bed.",TRUE
802,TRUE,6/11/19 10:26,R_9SsAPK496CzasIF,57,Male,2,TRUE,4.27,6,0.843,20,cooperation,TRUE,"While Lucy is in the attic, she will think that her keep pile is still on her bed.",TRUE
1523,TRUE,6/11/19 10:26,R_3nMdAmRDcLsubDw,51,Male,2,TRUE,3.536,2,5.426,23,competition,TRUE,"While Lucy is in the attic, she will think that her keep pile is still on her bed.",TRUE
360,TRUE,6/11/19 10:26,R_Atlru3d68LtFty9,25,Female,2,TRUE,0.031,6,0.367,25,cooperation,TRUE,"While Lucy is in the attic, she will think that her keep pile is still on her bed.",TRUE
759,TRUE,6/11/19 10:29,R_1imN1YnW2WzRUPb,28,Male,2,TRUE,1.981,1,0,16,competition,TRUE,"While Lucy is in the attic, she will think that her keep pile is still on her bed.",TRUE
957,TRUE,6/11/19 10:29,R_2zSWMEDaoL1SOAu,31,Male,2,TRUE,3.681,6,3.886,6,cooperation,TRUE,"While Lucy is in the attic, she will think that her keep pile is still on her bed.",TRUE
889,TRUE,6/11/19 10:29,R_3nDf4drFoPVOrBw,25,Male,2,TRUE,3.083,4,0,7,neutral,TRUE,"While Lucy is in the attic, she will think that her keep pile is still on her bed.",TRUE
997,TRUE,6/11/19 10:29,R_2VEIeNgMCWDD6PI,53,Male,2,TRUE,5.283,5,0,7,cooperation,TRUE,"While Lucy is in the attic, she will think that her keep pile is still on her bed.",TRUE
794,TRUE,6/11/19 10:33,R_2TRWr29U58Mi2vd,35,Female,2,TRUE,4.272,6,1.001,11,competition,TRUE,"While Lucy is in the attic, she will think that her keep pile is still on her bed.",TRUE
1070,TRUE,6/11/19 10:33,R_29blHmruFIqdVET,24,Female,2,TRUE,2.052,5,0,23,cooperation,TRUE,"While Lucy is in the attic, she will think that her keep pile is still on her bed.",TRUE
947,TRUE,6/11/19 10:34,R_3e91lKVZof2U9WM,56,Female,2,FALSE,3.561,6,14.091,2,competition,TRUE,"While Lucy is in the attic, she will think that her keep pile is still on her bed.",FALSE
1276,TRUE,6/11/19 10:34,R_9uV7FqusAsrI1ax,42,Female,2,TRUE,2.032,2,2.371,2,competition,TRUE,"While Lucy is in the attic, she will think that her keep pile is still on her bed.",TRUE
2004,TRUE,6/11/19 10:36,R_2bZfbFlc8rrkvRA,59,Female,2,TRUE,6.373,6,3.771,1,neutral,TRUE,"While Lucy is in the attic, she will think that her keep pile is still on her bed.",TRUE
892,TRUE,6/11/19 10:36,R_8Hck8ZQYc8I6p5T,38,Male,2,TRUE,2.275,2,0.689,20,competition,TRUE,"While Lucy is in the attic, she will think that her keep pile is still on her bed.",TRUE
2077,TRUE,6/11/19 10:37,R_RhrDJ0N4AIeK8KJ,51,Female,2,TRUE,2.332,4,0.929,28,neutral,TRUE,"While Lucy is in the attic, she will think that her keep pile is still on her bed.",TRUE
1668,TRUE,6/11/19 10:38,R_2YwWGMiMlgEZ760,32,Female,2,TRUE,1.918,4,1.969,22,competition,TRUE,"While Lucy is in the attic, she will think that her keep pile is still on her bed.",TRUE
901,TRUE,6/11/19 10:39,R_1JILVkssYD1rZln,36,Female,2,TRUE,2.703,2,0.601,5,competition,TRUE,"While Lucy is in the attic, she will think that her keep pile is still on her bed.",TRUE
689,TRUE,6/11/19 10:39,R_czK87MCE4yRGCoV,41,Male,2,TRUE,2.07,4,2.344,12,neutral,TRUE,"While Lucy is in the attic, she will think that her keep pile is still on her bed.",TRUE
1550,TRUE,6/11/19 10:39,R_3GDQqDVIwWtr9nA,28,Male,2,FALSE,63.683,4,1.457,8,neutral,TRUE,"While Lucy is in the attic, she will think that her keep pile is still on her bed.",FALSE
801,TRUE,6/11/19 10:42,R_3kmEB58BUmq91w0,46,Male,2,TRUE,2.781,4,0,22,cooperation,TRUE,"While Lucy is in the attic, she will think that her keep pile is still on her bed.",TRUE
1724,TRUE,6/11/19 10:43,R_10P35mcLAnwKhWy,50,Female,2,FALSE,37.752,1,36.829,3,competition,TRUE,"While Lucy is in the attic, she will think that her keep pile is still on her bed.",FALSE
286,TRUE,6/11/19 10:44,R_3OdkpJq3hbsVRWE,27,Male,2,TRUE,0.586,1,0.7,26,neutral,TRUE,"While Lucy is in the attic, she will think that her keep pile is still on her bed.",TRUE
960,TRUE,6/11/19 10:44,R_3e9ojOp1TeKv1qZ,34,Male,2,TRUE,4.515,7,1.414,4,cooperation,TRUE,"While Lucy is in the attic, she will think that her keep pile is still on her bed.",TRUE
2747,TRUE,6/11/19 10:44,R_1Lkjbw3WfVXlS9d,26,Female,2,TRUE,3.595,6,1.45,25,neutral,TRUE,"While Lucy is in the attic, she will think that her keep pile is still on her bed.",TRUE
1690,TRUE,6/11/19 10:45,R_2cmKsniFFYSx1jH,30,Male,2,TRUE,1.769,6,0,31,neutral,TRUE,"While Lucy is in the attic, she will think that her keep pile is still on her bed.",TRUE
655,TRUE,6/11/19 10:46,R_1DwKQDIzaUD1B7l,51,Female,2,TRUE,1.976,5,2.168,4,cooperation,TRUE,"While Lucy is in the attic, she will think that her keep pile is still on her bed.",TRUE
2643,TRUE,6/11/19 10:47,R_269ALNhnBlclbkb,40,Male,2,TRUE,5.835,3,1.611,9,cooperation,TRUE,"While Lucy is in the attic, she will think that her keep pile is still on her bed.",TRUE
886,TRUE,6/11/19 10:47,R_2uCckPWkBCKBxYk,64,Female,2,TRUE,2.971,1,1.792,17,neutral,TRUE,"While Lucy is in the attic, she will think that her keep pile is still on her bed.",TRUE
265,TRUE,6/11/19 10:48,R_1I3QgMMx9Y6yKXx,22,Male,2,FALSE,0.353,1,0,31,neutral,TRUE,"While Lucy is in the attic, she will think that her keep pile is still on her bed.",FALSE
1613,TRUE,6/11/19 10:48,R_3DkcaumZGBTLTE8,28,Female,2,TRUE,8.801,4,2.681,27,cooperation,TRUE,"While Lucy is in the attic, she will think that her keep pile is still on her bed.",TRUE
470,TRUE,6/11/19 10:49,R_3fqs8BUhsK3xzOP,25,Male,2,TRUE,4.564,1,21.946,4,neutral,TRUE,"While Lucy is in the attic, she will think that her keep pile is still on her bed.",TRUE
808,TRUE,6/11/19 10:49,R_x3LKJl1FJ13UY9P,45,Female,2,TRUE,2.916,5,2.031,12,cooperation,TRUE,"While Lucy is in the attic, she will think that her keep pile is still on her bed.",TRUE
708,TRUE,6/11/19 10:50,R_eyyWjPN9qCL2qwp,31,Male,2,TRUE,0,4,1.492,17,cooperation,TRUE,"While Lucy is in the attic, she will think that her keep pile is still on her bed.",TRUE
822,TRUE,6/11/19 10:50,R_2f0Xuu8UZgaJ119,21,Male,2,TRUE,8.815,4,0,11,neutral,TRUE,"While Lucy is in the attic, she will think that her keep pile is still on her bed.",TRUE
811,TRUE,6/11/19 10:53,R_3JC8SnUEgNXXiMQ,34,Female,2,TRUE,2.213,5,3.996,25,cooperation,TRUE,"While Lucy is in the attic, she will think that her keep pile is still on her bed.",TRUE
1472,TRUE,6/11/19 10:54,R_1rNFgXtar6CITN9,31,Male,2,TRUE,1.385,5,0,10,cooperation,TRUE,"While Lucy is in the attic, she will think that her keep pile is still on her bed.",TRUE
1374,TRUE,6/11/19 10:56,R_2PpujFAMLP4n0Lu,58,Male,2,TRUE,4.893,2,7.225,13,neutral,TRUE,"While Lucy is in the attic, she will think that her keep pile is still on her bed.",TRUE
936,TRUE,6/11/19 10:56,R_0oKtUCMX4aZ2WPv,36,Female,2,TRUE,4.619,4,7.731,5,cooperation,TRUE,"While Lucy is in the attic, she will think that her keep pile is still on her bed.",TRUE
1647,TRUE,6/11/19 10:57,R_30d8QsJfIkiO7F8,22,Female,2,TRUE,2.711,4,0,25,competition,TRUE,"While Lucy is in the attic, she will think that her keep pile is still on her bed.",TRUE
1250,TRUE,6/11/19 11:04,R_YR2Kh4aQNWGzOBr,56,Male,2,TRUE,3.536,6,4.249,8,neutral,TRUE,"While Lucy is in the attic, she will think that her keep pile is still on her bed.",TRUE
698,TRUE,6/11/19 11:08,R_e52J1yxiPEYzG5r,38,Female,2,TRUE,1.442,1,0.717,26,neutral,TRUE,"While Lucy is in the attic, she will think that her keep pile is still on her bed.",TRUE
766,TRUE,6/11/19 11:10,R_RJFMoJKmwY9AKMp,33,Male,2,TRUE,1.95,4,0,16,cooperation,TRUE,"While Lucy is in the attic, she will think that her keep pile is still on her bed.",TRUE
404,TRUE,6/11/19 11:11,R_2VKNQmHBKv3OwAC,30,Female,2,TRUE,1.46,1,0,20,competition,TRUE,"While Lucy is in the attic, she will think that her keep pile is still on her bed.",TRUE
827,TRUE,6/11/19 11:13,R_WlKmaf9xWFq8VGh,33,Male,2,TRUE,4.719,3,0.85,29,competition,TRUE,"While Lucy is in the attic, she will think that her keep pile is still on her bed.",TRUE
2485,TRUE,6/11/19 11:14,R_3k54gz7YctGkmcr,40,Female,2,TRUE,1.618,4,0.945,7,neutral,TRUE,"While Lucy is in the attic, she will think that her keep pile is still on her bed.",TRUE
1014,TRUE,6/11/19 11:17,R_3dLGDATDaJjUZFG,43,Female,2,TRUE,1.761,6,1.733,27,neutral,TRUE,"While Lucy is in the attic, she will think that her keep pile is still on her bed.",TRUE
1526,TRUE,6/11/19 11:21,R_1rxEVsAJQmRUEtw,34,Female,2,TRUE,3.977,4,0,2,competition,TRUE,"While Lucy is in the attic, she will think that her keep pile is still on her bed.",TRUE
2562,TRUE,6/11/19 11:24,R_vP6DUbkLNf63fNv,29,Male,2,TRUE,1.813,3,0,31,competition,TRUE,"While Lucy is in the attic, she will think that her keep pile is still on her bed.",TRUE
726,TRUE,6/11/19 11:24,R_2rwv5g0HvjCMINH,31,Female,2,TRUE,1.14,5,1.193,9,neutral,TRUE,"While Lucy is in the attic, she will think that her keep pile is still on her bed.",TRUE
1294,TRUE,6/11/19 11:26,R_2VI1XbZTJLYiBsC,52,Female,2,TRUE,12.682,4,4.333,17,neutral,TRUE,"While Lucy is in the attic, she will think that her keep pile is still on her bed.",TRUE
1357,TRUE,6/11/19 11:27,R_3sgCUVQuqNCS49z,28,Male,2,TRUE,0.356,6,536.408,22,cooperation,TRUE,"While Lucy is in the attic, she will think that her keep pile is still on her bed.",TRUE
1092,TRUE,6/11/19 11:28,R_sTeABaS570NXdzX,32,Male,2,TRUE,1.897,1,0,11,competition,TRUE,"While Lucy is in the attic, she will think that her keep pile is still on her bed.",TRUE
756,TRUE,6/11/19 11:32,R_1JOwHmzDAvkXI0A,33,Male,2,FALSE,2,4,0.003,29,cooperation,TRUE,"While Lucy is in the attic, she will think that her keep pile is still on her bed.",FALSE
443,TRUE,6/11/19 11:34,R_31RgK3UZ74hAawa,25,Male,2,TRUE,1.834,6,0.758,8,cooperation,TRUE,"While Lucy is in the attic, she will think that her keep pile is still on her bed.",TRUE
1093,TRUE,6/11/19 11:35,R_1lxvJfgZkNZLDrv,47,Female,2,TRUE,2.928,4,0.912,29,cooperation,TRUE,"While Lucy is in the attic, she will think that her keep pile is still on her bed.",TRUE
642,TRUE,6/11/19 11:38,R_2YzzmFn7hxPlU3P,31,Female,2,TRUE,1.232,3,0,3,cooperation,TRUE,"While Lucy is in the attic, she will think that her keep pile is still on her bed.",TRUE
1111,TRUE,6/11/19 11:42,R_2dQgtgvLUN4VOnC,19,Female,2,TRUE,2.367,1,0,6,neutral,TRUE,"While Lucy is in the attic, she will think that her keep pile is still on her bed.",TRUE
1638,TRUE,6/11/19 11:43,R_3MAlInCEGkDn9q6,44,Male,2,TRUE,3.712,3,0,25,competition,TRUE,"While Lucy is in the attic, she will think that her keep pile is still on her bed.",TRUE
643,TRUE,6/11/19 11:48,R_tXndXrczjfmXjpv,44,Male,2,TRUE,5.355,2,1.083,20,competition,TRUE,"While Lucy is in the attic, she will think that her keep pile is still on her bed.",TRUE
609,TRUE,6/11/19 11:59,R_ZwU8GWTWZK6EAxP,37,Female,2,TRUE,1.922,3,0,16,neutral,TRUE,"While Lucy is in the attic, she will think that her keep pile is still on her bed.",TRUE
1211,TRUE,6/11/19 11:59,R_2BtDYM5U0ZrGCUB,45,Female,2,TRUE,3.771,5,2.077,15,cooperation,TRUE,"While Lucy is in the attic, she will think that her keep pile is still on her bed.",TRUE
1037,TRUE,6/11/19 12:05,R_2YyA7VHI4VbWKr3,33,Male,2,TRUE,1.836,4,0.463,6,cooperation,TRUE,"While Lucy is in the attic, she will think that her keep pile is still on her bed.",TRUE
1552,TRUE,6/11/19 12:41,R_1MM3vx8EaIJeH6y,33,Male,2,TRUE,2.956,1,0,2,competition,TRUE,"While Lucy is in the attic, she will think that her keep pile is still on her bed.",TRUE
793,TRUE,6/11/19 12:49,R_yvSkxw8Y8PIpXbP,58,Female,2,TRUE,2.466,3,2.614,3,competition,TRUE,"While Lucy is in the attic, she will think that her keep pile is still on her bed.",TRUE
1000,TRUE,6/11/19 13:37,R_25YBNmGFBPU4uAS,21,Male,2,FALSE,2.249,5,0,24,competition,TRUE,"While Lucy is in the attic, she will think that her keep pile is still on her bed.",FALSE
296,TRUE,6/11/19 10:03,R_3nlt53Yxgvz7sUa,35,Male,3,TRUE,0.397,3,0.232,16,neutral,FALSE,"When Roxanne wakes up, she will think the puzzle is completed.",FALSE
655,TRUE,6/11/19 10:10,R_ZLis8sRowpk9PvX,41,Female,3,FALSE,2.401,4,2.227,6,neutral,FALSE,"When Roxanne wakes up, she will think the puzzle is completed.",TRUE
748,TRUE,6/11/19 10:10,R_5aKNWSi3ewXI0Br,23,Male,3,FALSE,1.337,4,1.567,5,neutral,FALSE,"When Roxanne wakes up, she will think the puzzle is completed.",TRUE
528,TRUE,6/11/19 10:11,R_73NCcJkqe8nX3pL,35,Male,3,TRUE,9.405,2,0.987,4,neutral,FALSE,"When Roxanne wakes up, she will think the puzzle is completed.",FALSE
755,TRUE,6/11/19 10:11,R_1itjXKj7aJ26xlY,50,Male,3,FALSE,1.358,5,1.503,28,cooperation,FALSE,"When Roxanne wakes up, she will think the puzzle is completed.",TRUE
677,TRUE,6/11/19 10:11,R_2xEQOcbagTC5K31,27,Female,3,TRUE,3.281,7,2.861,1,cooperation,FALSE,"When Roxanne wakes up, she will think the puzzle is completed.",FALSE
772,TRUE,6/11/19 10:11,R_sjyOcu2i5Cs3KPD,40,Male,3,FALSE,2.229,4,0.779,18,neutral,FALSE,"When Roxanne wakes up, she will think the puzzle is completed.",TRUE
735,TRUE,6/11/19 10:11,R_2DMiqHkr8WXICHg,32,Female,3,FALSE,1.785,5,1.405,30,cooperation,FALSE,"When Roxanne wakes up, she will think the puzzle is completed.",TRUE
500,TRUE,6/11/19 10:12,R_2tyaL54hsNnBGiE,35,Male,3,FALSE,2.672,4,3.273,1,competition,FALSE,"When Roxanne wakes up, she will think the puzzle is completed.",TRUE
818,TRUE,6/11/19 10:12,R_Qh6cdqFytPFsV3P,28,Female,3,FALSE,4.403,7,3.698,15,cooperation,FALSE,"When Roxanne wakes up, she will think the puzzle is completed.",TRUE
737,TRUE,6/11/19 10:12,R_3k7XpgJaA2P1mMl,29,Male,3,FALSE,1.638,4,0,22,competition,FALSE,"When Roxanne wakes up, she will think the puzzle is completed.",TRUE
831,TRUE,6/11/19 10:12,R_3n7UxfN5J3GD59s,55,Male,3,FALSE,2.275,4,1.291,28,neutral,FALSE,"When Roxanne wakes up, she will think the puzzle is completed.",TRUE
819,TRUE,6/11/19 10:12,R_2dHltfvDoR6dDRT,31,Male,3,FALSE,1.058,2,0.8,10,competition,FALSE,"When Roxanne wakes up, she will think the puzzle is completed.",TRUE
764,TRUE,6/11/19 10:13,R_3JJylNort6ur6sS,21,Male,3,FALSE,1.345,2,0.281,26,neutral,FALSE,"When Roxanne wakes up, she will think the puzzle is completed.",TRUE
898,TRUE,6/11/19 10:13,R_2BsoiDyVxkWuZ8o,47,Male,3,FALSE,2.938,3,0,18,neutral,FALSE,"When Roxanne wakes up, she will think the puzzle is completed.",TRUE
820,TRUE,6/11/19 10:14,R_21ooKFhcfIWZ74P,35,Male,3,FALSE,2.474,3,2.042,27,neutral,FALSE,"When Roxanne wakes up, she will think the puzzle is completed.",TRUE
931,TRUE,6/11/19 10:14,R_UyANc1QsKeLFV4t,28,Female,3,FALSE,4.497,4,2.357,1,neutral,FALSE,"When Roxanne wakes up, she will think the puzzle is completed.",TRUE
530,TRUE,6/11/19 10:15,R_1d148ARgkkhTuhj,31,Male,3,TRUE,0.96,5,0,20,competition,FALSE,"When Roxanne wakes up, she will think the puzzle is completed.",FALSE
997,TRUE,6/11/19 10:15,R_2z8inlLrpl77PQ7,30,Male,3,FALSE,1.853,3,4.635,14,neutral,FALSE,"When Roxanne wakes up, she will think the puzzle is completed.",TRUE
956,TRUE,6/11/19 10:16,R_CdF5GMFiGS5KcHD,37,Male,3,FALSE,1.685,5,0,27,cooperation,FALSE,"When Roxanne wakes up, she will think the puzzle is completed.",TRUE
1075,TRUE,6/11/19 10:16,R_2trOvSxSAJkEHCg,29,Male,3,FALSE,2.893,4,1.997,10,competition,FALSE,"When Roxanne wakes up, she will think the puzzle is completed.",TRUE
959,TRUE,6/11/19 10:16,R_1myjjiv96Mndvet,41,Female,3,FALSE,1.411,2,0.33,20,neutral,FALSE,"When Roxanne wakes up, she will think the puzzle is completed.",TRUE
1162,TRUE,6/11/19 10:18,R_1omSlECSpgsqhsR,28,Female,3,FALSE,4.437,6,0,6,competition,FALSE,"When Roxanne wakes up, she will think the puzzle is completed.",TRUE
1047,TRUE,6/11/19 10:18,R_2YtVD8wLevQUfn3,58,Female,3,FALSE,6.225,7,0,6,cooperation,FALSE,"When Roxanne wakes up, she will think the puzzle is completed.",TRUE
712,TRUE,6/11/19 10:18,R_pKjvBYAYxQE8WXL,30,Male,3,FALSE,1.39,4,0,6,neutral,FALSE,"When Roxanne wakes up, she will think the puzzle is completed.",TRUE
594,TRUE,6/11/19 10:21,R_8dj2lxJavrkg157,26,Male,3,FALSE,1.979,1,0.247,10,neutral,FALSE,"When Roxanne wakes up, she will think the puzzle is completed.",TRUE
1438,TRUE,6/11/19 10:22,R_1IFpRvvaYecmO6u,39,Female,3,FALSE,1.738,3,0,24,neutral,FALSE,"When Roxanne wakes up, she will think the puzzle is completed.",TRUE
946,TRUE,6/11/19 10:24,R_2aOYOkpwV5YFXyw,56,Female,3,FALSE,2.951,5,1.789,21,cooperation,FALSE,"When Roxanne wakes up, she will think the puzzle is completed.",TRUE
1583,TRUE,6/11/19 10:25,R_1d6q1wNaxE5Lxx8,55,Male,3,FALSE,1.856,4,1.756,29,cooperation,FALSE,"When Roxanne wakes up, she will think the puzzle is completed.",TRUE
706,TRUE,6/11/19 10:26,R_3nGjUrYlrB1utE8,29,Male,3,FALSE,2.038,5,1.092,16,competition,FALSE,"When Roxanne wakes up, she will think the puzzle is completed.",TRUE
631,TRUE,6/11/19 10:26,R_3FPZz0NRyA1ktiZ,36,Female,3,FALSE,1.999,3,0,27,neutral,FALSE,"When Roxanne wakes up, she will think the puzzle is completed.",TRUE
802,TRUE,6/11/19 10:26,R_9SsAPK496CzasIF,57,Male,3,FALSE,1.769,3,2.158,29,neutral,FALSE,"When Roxanne wakes up, she will think the puzzle is completed.",TRUE
1523,TRUE,6/11/19 10:26,R_3nMdAmRDcLsubDw,51,Male,3,FALSE,11.753,2,7.3,1,competition,FALSE,"When Roxanne wakes up, she will think the puzzle is completed.",TRUE
360,TRUE,6/11/19 10:26,R_Atlru3d68LtFty9,25,Female,3,FALSE,0.514,6,0.039,23,neutral,FALSE,"When Roxanne wakes up, she will think the puzzle is completed.",TRUE
759,TRUE,6/11/19 10:29,R_1imN1YnW2WzRUPb,28,Male,3,FALSE,4.59,4,0,6,neutral,FALSE,"When Roxanne wakes up, she will think the puzzle is completed.",TRUE
957,TRUE,6/11/19 10:29,R_2zSWMEDaoL1SOAu,31,Male,3,FALSE,1.805,1,1.302,10,neutral,FALSE,"When Roxanne wakes up, she will think the puzzle is completed.",TRUE
889,TRUE,6/11/19 10:29,R_3nDf4drFoPVOrBw,25,Male,3,FALSE,2.363,4,0,29,neutral,FALSE,"When Roxanne wakes up, she will think the puzzle is completed.",TRUE
997,TRUE,6/11/19 10:29,R_2VEIeNgMCWDD6PI,53,Male,3,FALSE,3.744,5,2.447,13,neutral,FALSE,"When Roxanne wakes up, she will think the puzzle is completed.",TRUE
794,TRUE,6/11/19 10:33,R_2TRWr29U58Mi2vd,35,Female,3,FALSE,4.122,2,0,31,competition,FALSE,"When Roxanne wakes up, she will think the puzzle is completed.",TRUE
1070,TRUE,6/11/19 10:33,R_29blHmruFIqdVET,24,Female,3,FALSE,1.92,6,0.415,14,cooperation,FALSE,"When Roxanne wakes up, she will think the puzzle is completed.",TRUE
947,TRUE,6/11/19 10:34,R_3e91lKVZof2U9WM,56,Female,3,FALSE,2.515,4,1.101,9,neutral,FALSE,"When Roxanne wakes up, she will think the puzzle is completed.",TRUE
1276,TRUE,6/11/19 10:34,R_9uV7FqusAsrI1ax,42,Female,3,FALSE,3.454,4,1.475,27,neutral,FALSE,"When Roxanne wakes up, she will think the puzzle is completed.",TRUE
2004,TRUE,6/11/19 10:36,R_2bZfbFlc8rrkvRA,59,Female,3,FALSE,2.733,4,2.364,22,neutral,FALSE,"When Roxanne wakes up, she will think the puzzle is completed.",TRUE
892,TRUE,6/11/19 10:36,R_8Hck8ZQYc8I6p5T,38,Male,3,FALSE,1.617,2,1.8,25,competition,FALSE,"When Roxanne wakes up, she will think the puzzle is completed.",TRUE
2077,TRUE,6/11/19 10:37,R_RhrDJ0N4AIeK8KJ,51,Female,3,FALSE,2.485,4,2.099,12,neutral,FALSE,"When Roxanne wakes up, she will think the puzzle is completed.",TRUE
1668,TRUE,6/11/19 10:38,R_2YwWGMiMlgEZ760,32,Female,3,FALSE,1.85,2,1.782,14,neutral,FALSE,"When Roxanne wakes up, she will think the puzzle is completed.",TRUE
901,TRUE,6/11/19 10:39,R_1JILVkssYD1rZln,36,Female,3,FALSE,2.262,2,0,3,competition,FALSE,"When Roxanne wakes up, she will think the puzzle is completed.",TRUE
689,TRUE,6/11/19 10:39,R_czK87MCE4yRGCoV,41,Male,3,FALSE,2.445,2,2.856,18,neutral,FALSE,"When Roxanne wakes up, she will think the puzzle is completed.",TRUE
1550,TRUE,6/11/19 10:39,R_3GDQqDVIwWtr9nA,28,Male,3,TRUE,6.083,4,0,10,neutral,FALSE,"When Roxanne wakes up, she will think the puzzle is completed.",FALSE
801,TRUE,6/11/19 10:42,R_3kmEB58BUmq91w0,46,Male,3,FALSE,2.397,7,0,24,cooperation,FALSE,"When Roxanne wakes up, she will think the puzzle is completed.",TRUE
1724,TRUE,6/11/19 10:43,R_10P35mcLAnwKhWy,50,Female,3,TRUE,0.716,4,1.022,17,neutral,FALSE,"When Roxanne wakes up, she will think the puzzle is completed.",FALSE
286,TRUE,6/11/19 10:44,R_3OdkpJq3hbsVRWE,27,Male,3,TRUE,0.785,4,0,22,cooperation,FALSE,"When Roxanne wakes up, she will think the puzzle is completed.",FALSE
960,TRUE,6/11/19 10:44,R_3e9ojOp1TeKv1qZ,34,Male,3,FALSE,2.093,1,0,9,competition,FALSE,"When Roxanne wakes up, she will think the puzzle is completed.",TRUE
2747,TRUE,6/11/19 10:44,R_1Lkjbw3WfVXlS9d,26,Female,3,FALSE,1.92,7,0.217,5,neutral,FALSE,"When Roxanne wakes up, she will think the puzzle is completed.",TRUE
1690,TRUE,6/11/19 10:45,R_2cmKsniFFYSx1jH,30,Male,3,FALSE,1.504,6,0,24,cooperation,FALSE,"When Roxanne wakes up, she will think the puzzle is completed.",TRUE
655,TRUE,6/11/19 10:46,R_1DwKQDIzaUD1B7l,51,Female,3,FALSE,2.006,2,0.56,15,competition,FALSE,"When Roxanne wakes up, she will think the puzzle is completed.",TRUE
2643,TRUE,6/11/19 10:47,R_269ALNhnBlclbkb,40,Male,3,TRUE,1.739,3,0,5,cooperation,FALSE,"When Roxanne wakes up, she will think the puzzle is completed.",FALSE
886,TRUE,6/11/19 10:47,R_2uCckPWkBCKBxYk,64,Female,3,FALSE,7.051,1,1.315,16,neutral,FALSE,"When Roxanne wakes up, she will think the puzzle is completed.",TRUE
265,TRUE,6/11/19 10:48,R_1I3QgMMx9Y6yKXx,22,Male,3,FALSE,0.569,3,6.031,5,competition,FALSE,"When Roxanne wakes up, she will think the puzzle is completed.",TRUE
1613,TRUE,6/11/19 10:48,R_3DkcaumZGBTLTE8,28,Female,3,FALSE,3.701,4,2.358,13,neutral,FALSE,"When Roxanne wakes up, she will think the puzzle is completed.",TRUE
470,TRUE,6/11/19 10:49,R_3fqs8BUhsK3xzOP,25,Male,3,FALSE,1.54,4,0.999,10,neutral,FALSE,"When Roxanne wakes up, she will think the puzzle is completed.",TRUE
808,TRUE,6/11/19 10:49,R_x3LKJl1FJ13UY9P,45,Female,3,FALSE,1.996,5,1.821,22,cooperation,FALSE,"When Roxanne wakes up, she will think the puzzle is completed.",TRUE
708,TRUE,6/11/19 10:50,R_eyyWjPN9qCL2qwp,31,Male,3,FALSE,0,2,0,26,competition,FALSE,"When Roxanne wakes up, she will think the puzzle is completed.",TRUE
822,TRUE,6/11/19 10:50,R_2f0Xuu8UZgaJ119,21,Male,3,FALSE,1.711,5,0.175,23,cooperation,FALSE,"When Roxanne wakes up, she will think the puzzle is completed.",TRUE
811,TRUE,6/11/19 10:53,R_3JC8SnUEgNXXiMQ,34,Female,3,FALSE,3.742,3,0,3,cooperation,FALSE,"When Roxanne wakes up, she will think the puzzle is completed.",TRUE
1472,TRUE,6/11/19 10:54,R_1rNFgXtar6CITN9,31,Male,3,FALSE,1.227,4,0,11,neutral,FALSE,"When Roxanne wakes up, she will think the puzzle is completed.",TRUE
1374,TRUE,6/11/19 10:56,R_2PpujFAMLP4n0Lu,58,Male,3,FALSE,2.241,2,0,12,competition,FALSE,"When Roxanne wakes up, she will think the puzzle is completed.",TRUE
936,TRUE,6/11/19 10:56,R_0oKtUCMX4aZ2WPv,36,Female,3,FALSE,4.931,7,2.505,4,cooperation,FALSE,"When Roxanne wakes up, she will think the puzzle is completed.",TRUE
1647,TRUE,6/11/19 10:57,R_30d8QsJfIkiO7F8,22,Female,3,FALSE,2.76,4,1.207,20,competition,FALSE,"When Roxanne wakes up, she will think the puzzle is completed.",TRUE
1250,TRUE,6/11/19 11:04,R_YR2Kh4aQNWGzOBr,56,Male,3,FALSE,2.752,4,3.077,9,competition,FALSE,"When Roxanne wakes up, she will think the puzzle is completed.",TRUE
698,TRUE,6/11/19 11:08,R_e52J1yxiPEYzG5r,38,Female,3,FALSE,1.241,2,0,27,cooperation,FALSE,"When Roxanne wakes up, she will think the puzzle is completed.",TRUE
766,TRUE,6/11/19 11:10,R_RJFMoJKmwY9AKMp,33,Male,3,FALSE,3.36,4,1.696,10,cooperation,FALSE,"When Roxanne wakes up, she will think the puzzle is completed.",TRUE
404,TRUE,6/11/19 11:11,R_2VKNQmHBKv3OwAC,30,Female,3,FALSE,1.436,2,0,28,competition,FALSE,"When Roxanne wakes up, she will think the puzzle is completed.",TRUE
827,TRUE,6/11/19 11:13,R_WlKmaf9xWFq8VGh,33,Male,3,FALSE,1.316,4,0.57,10,competition,FALSE,"When Roxanne wakes up, she will think the puzzle is completed.",TRUE
2485,TRUE,6/11/19 11:14,R_3k54gz7YctGkmcr,40,Female,3,FALSE,1.935,5,1.138,5,competition,FALSE,"When Roxanne wakes up, she will think the puzzle is completed.",TRUE
1014,TRUE,6/11/19 11:17,R_3dLGDATDaJjUZFG,43,Female,3,FALSE,1.887,4,1.038,24,cooperation,FALSE,"When Roxanne wakes up, she will think the puzzle is completed.",TRUE
1526,TRUE,6/11/19 11:21,R_1rxEVsAJQmRUEtw,34,Female,3,FALSE,2.44,2,2.701,5,neutral,FALSE,"When Roxanne wakes up, she will think the puzzle is completed.",TRUE
2562,TRUE,6/11/19 11:24,R_vP6DUbkLNf63fNv,29,Male,3,FALSE,1.563,4,0.687,14,cooperation,FALSE,"When Roxanne wakes up, she will think the puzzle is completed.",TRUE
726,TRUE,6/11/19 11:24,R_2rwv5g0HvjCMINH,31,Female,3,FALSE,1.082,4,0.204,27,cooperation,FALSE,"When Roxanne wakes up, she will think the puzzle is completed.",TRUE
1294,TRUE,6/11/19 11:26,R_2VI1XbZTJLYiBsC,52,Female,3,FALSE,6.264,2,4.61,13,neutral,FALSE,"When Roxanne wakes up, she will think the puzzle is completed.",TRUE
1357,TRUE,6/11/19 11:27,R_3sgCUVQuqNCS49z,28,Male,3,TRUE,0.689,6,0,19,neutral,FALSE,"When Roxanne wakes up, she will think the puzzle is completed.",FALSE
1092,TRUE,6/11/19 11:28,R_sTeABaS570NXdzX,32,Male,3,FALSE,5.648,1,1.626,1,neutral,FALSE,"When Roxanne wakes up, she will think the puzzle is completed.",TRUE
756,TRUE,6/11/19 11:32,R_1JOwHmzDAvkXI0A,33,Male,3,TRUE,3.524,5,0,1,competition,FALSE,"When Roxanne wakes up, she will think the puzzle is completed.",FALSE
443,TRUE,6/11/19 11:34,R_31RgK3UZ74hAawa,25,Male,3,FALSE,1.414,5,0,7,cooperation,FALSE,"When Roxanne wakes up, she will think the puzzle is completed.",TRUE
1093,TRUE,6/11/19 11:35,R_1lxvJfgZkNZLDrv,47,Female,3,FALSE,2.784,5,2.819,30,cooperation,FALSE,"When Roxanne wakes up, she will think the puzzle is completed.",TRUE
642,TRUE,6/11/19 11:38,R_2YzzmFn7hxPlU3P,31,Female,3,FALSE,0.894,5,4.57,8,neutral,FALSE,"When Roxanne wakes up, she will think the puzzle is completed.",TRUE
1111,TRUE,6/11/19 11:42,R_2dQgtgvLUN4VOnC,19,Female,3,FALSE,1.828,4,0,4,neutral,FALSE,"When Roxanne wakes up, she will think the puzzle is completed.",TRUE
1638,TRUE,6/11/19 11:43,R_3MAlInCEGkDn9q6,44,Male,3,FALSE,1.575,1,0.852,20,competition,FALSE,"When Roxanne wakes up, she will think the puzzle is completed.",TRUE
643,TRUE,6/11/19 11:48,R_tXndXrczjfmXjpv,44,Male,3,FALSE,1.727,2,0.962,24,neutral,FALSE,"When Roxanne wakes up, she will think the puzzle is completed.",TRUE
609,TRUE,6/11/19 11:59,R_ZwU8GWTWZK6EAxP,37,Female,3,FALSE,1.227,4,2.103,13,cooperation,FALSE,"When Roxanne wakes up, she will think the puzzle is completed.",TRUE
1211,TRUE,6/11/19 11:59,R_2BtDYM5U0ZrGCUB,45,Female,3,FALSE,2.073,6,2,30,cooperation,FALSE,"When Roxanne wakes up, she will think the puzzle is completed.",TRUE
1037,TRUE,6/11/19 12:05,R_2YyA7VHI4VbWKr3,33,Male,3,FALSE,1.133,3,0,26,cooperation,FALSE,"When Roxanne wakes up, she will think the puzzle is completed.",TRUE
1552,TRUE,6/11/19 12:41,R_1MM3vx8EaIJeH6y,33,Male,3,FALSE,7.013,6,3.895,14,cooperation,FALSE,"When Roxanne wakes up, she will think the puzzle is completed.",TRUE
793,TRUE,6/11/19 12:49,R_yvSkxw8Y8PIpXbP,58,Female,3,FALSE,1.916,5,2.5,9,cooperation,FALSE,"When Roxanne wakes up, she will think the puzzle is completed.",TRUE
1000,TRUE,6/11/19 13:37,R_25YBNmGFBPU4uAS,21,Male,3,FALSE,1.7,4,0,21,neutral,FALSE,"When Roxanne wakes up, she will think the puzzle is completed.",TRUE
296,TRUE,6/11/19 10:03,R_3nlt53Yxgvz7sUa,35,Male,4,TRUE,0.254,5,0,17,competition,TRUE,"When Brad wakes up, he will think that the DVDs are still at the house.",TRUE
655,TRUE,6/11/19 10:10,R_ZLis8sRowpk9PvX,41,Female,4,TRUE,1.76,3,0,8,competition,TRUE,"When Brad wakes up, he will think that the DVDs are still at the house.",TRUE
748,TRUE,6/11/19 10:10,R_5aKNWSi3ewXI0Br,23,Male,4,TRUE,1.133,1,0,11,competition,TRUE,"When Brad wakes up, he will think that the DVDs are still at the house.",TRUE
528,TRUE,6/11/19 10:11,R_73NCcJkqe8nX3pL,35,Male,4,FALSE,0.483,2,1.033,12,competition,TRUE,"When Brad wakes up, he will think that the DVDs are still at the house.",FALSE
755,TRUE,6/11/19 10:11,R_1itjXKj7aJ26xlY,50,Male,4,TRUE,1.574,2,1.903,9,neutral,TRUE,"When Brad wakes up, he will think that the DVDs are still at the house.",TRUE
677,TRUE,6/11/19 10:11,R_2xEQOcbagTC5K31,27,Female,4,TRUE,1.955,1,0,6,competition,TRUE,"When Brad wakes up, he will think that the DVDs are still at the house.",TRUE
772,TRUE,6/11/19 10:11,R_sjyOcu2i5Cs3KPD,40,Male,4,TRUE,2.578,2,0.825,23,competition,TRUE,"When Brad wakes up, he will think that the DVDs are still at the house.",TRUE
735,TRUE,6/11/19 10:11,R_2DMiqHkr8WXICHg,32,Female,4,TRUE,2.041,5,0,11,competition,TRUE,"When Brad wakes up, he will think that the DVDs are still at the house.",TRUE
500,TRUE,6/11/19 10:12,R_2tyaL54hsNnBGiE,35,Male,4,TRUE,2.111,4,0,22,cooperation,TRUE,"When Brad wakes up, he will think that the DVDs are still at the house.",TRUE
818,TRUE,6/11/19 10:12,R_Qh6cdqFytPFsV3P,28,Female,4,TRUE,2.963,2,2.936,1,competition,TRUE,"When Brad wakes up, he will think that the DVDs are still at the house.",TRUE
737,TRUE,6/11/19 10:12,R_3k7XpgJaA2P1mMl,29,Male,4,TRUE,10.911,4,0,23,neutral,TRUE,"When Brad wakes up, he will think that the DVDs are still at the house.",TRUE
831,TRUE,6/11/19 10:12,R_3n7UxfN5J3GD59s,55,Male,4,TRUE,1.744,7,2.66,29,cooperation,TRUE,"When Brad wakes up, he will think that the DVDs are still at the house.",TRUE
819,TRUE,6/11/19 10:12,R_2dHltfvDoR6dDRT,31,Male,4,TRUE,1.198,3,0.77,28,competition,TRUE,"When Brad wakes up, he will think that the DVDs are still at the house.",TRUE
764,TRUE,6/11/19 10:13,R_3JJylNort6ur6sS,21,Male,4,TRUE,1.516,2,0.266,29,neutral,TRUE,"When Brad wakes up, he will think that the DVDs are still at the house.",TRUE
898,TRUE,6/11/19 10:13,R_2BsoiDyVxkWuZ8o,47,Male,4,TRUE,2.127,3,1.608,5,competition,TRUE,"When Brad wakes up, he will think that the DVDs are still at the house.",TRUE
820,TRUE,6/11/19 10:14,R_21ooKFhcfIWZ74P,35,Male,4,TRUE,1.724,6,1.753,14,cooperation,TRUE,"When Brad wakes up, he will think that the DVDs are still at the house.",TRUE
931,TRUE,6/11/19 10:14,R_UyANc1QsKeLFV4t,28,Female,4,TRUE,2.358,4,1.462,9,neutral,TRUE,"When Brad wakes up, he will think that the DVDs are still at the house.",TRUE
530,TRUE,6/11/19 10:15,R_1d148ARgkkhTuhj,31,Male,4,TRUE,1.168,7,0,12,neutral,TRUE,"When Brad wakes up, he will think that the DVDs are still at the house.",TRUE
997,TRUE,6/11/19 10:15,R_2z8inlLrpl77PQ7,30,Male,4,TRUE,1.899,4,10.026,13,neutral,TRUE,"When Brad wakes up, he will think that the DVDs are still at the house.",TRUE
956,TRUE,6/11/19 10:16,R_CdF5GMFiGS5KcHD,37,Male,4,TRUE,1.435,4,0.412,26,neutral,TRUE,"When Brad wakes up, he will think that the DVDs are still at the house.",TRUE
1075,TRUE,6/11/19 10:16,R_2trOvSxSAJkEHCg,29,Male,4,TRUE,2.201,3,1.599,6,neutral,TRUE,"When Brad wakes up, he will think that the DVDs are still at the house.",TRUE
959,TRUE,6/11/19 10:16,R_1myjjiv96Mndvet,41,Female,4,TRUE,1.704,1,0,24,competition,TRUE,"When Brad wakes up, he will think that the DVDs are still at the house.",TRUE
1162,TRUE,6/11/19 10:18,R_1omSlECSpgsqhsR,28,Female,4,TRUE,2.368,5,0,30,neutral,TRUE,"When Brad wakes up, he will think that the DVDs are still at the house.",TRUE
1047,TRUE,6/11/19 10:18,R_2YtVD8wLevQUfn3,58,Female,4,FALSE,34.505,6,7.475,3,competition,TRUE,"When Brad wakes up, he will think that the DVDs are still at the house.",FALSE
712,TRUE,6/11/19 10:18,R_pKjvBYAYxQE8WXL,30,Male,4,TRUE,1.105,4,0,15,neutral,TRUE,"When Brad wakes up, he will think that the DVDs are still at the house.",TRUE
594,TRUE,6/11/19 10:21,R_8dj2lxJavrkg157,26,Male,4,TRUE,1.644,4,0,29,neutral,TRUE,"When Brad wakes up, he will think that the DVDs are still at the house.",TRUE
1438,TRUE,6/11/19 10:22,R_1IFpRvvaYecmO6u,39,Female,4,TRUE,1.221,3,0,4,competition,TRUE,"When Brad wakes up, he will think that the DVDs are still at the house.",TRUE
946,TRUE,6/11/19 10:24,R_2aOYOkpwV5YFXyw,56,Female,4,TRUE,3.156,7,2.186,19,cooperation,TRUE,"When Brad wakes up, he will think that the DVDs are still at the house.",TRUE
1583,TRUE,6/11/19 10:25,R_1d6q1wNaxE5Lxx8,55,Male,4,TRUE,2.446,1,1.591,12,competition,TRUE,"When Brad wakes up, he will think that the DVDs are still at the house.",TRUE
706,TRUE,6/11/19 10:26,R_3nGjUrYlrB1utE8,29,Male,4,TRUE,1.718,5,0.678,18,cooperation,TRUE,"When Brad wakes up, he will think that the DVDs are still at the house.",TRUE
631,TRUE,6/11/19 10:26,R_3FPZz0NRyA1ktiZ,36,Female,4,TRUE,1.81,2,0.962,8,competition,TRUE,"When Brad wakes up, he will think that the DVDs are still at the house.",TRUE
802,TRUE,6/11/19 10:26,R_9SsAPK496CzasIF,57,Male,4,TRUE,2.445,2,1.053,25,competition,TRUE,"When Brad wakes up, he will think that the DVDs are still at the house.",TRUE
1523,TRUE,6/11/19 10:26,R_3nMdAmRDcLsubDw,51,Male,4,TRUE,2.913,2,2.552,24,competition,TRUE,"When Brad wakes up, he will think that the DVDs are still at the house.",TRUE
360,TRUE,6/11/19 10:26,R_Atlru3d68LtFty9,25,Female,4,TRUE,0.003,5,0,10,neutral,TRUE,"When Brad wakes up, he will think that the DVDs are still at the house.",TRUE
759,TRUE,6/11/19 10:29,R_1imN1YnW2WzRUPb,28,Male,4,TRUE,1.975,1,0,28,neutral,TRUE,"When Brad wakes up, he will think that the DVDs are still at the house.",TRUE
957,TRUE,6/11/19 10:29,R_2zSWMEDaoL1SOAu,31,Male,4,TRUE,2.682,7,1.546,5,cooperation,TRUE,"When Brad wakes up, he will think that the DVDs are still at the house.",TRUE
889,TRUE,6/11/19 10:29,R_3nDf4drFoPVOrBw,25,Male,4,TRUE,2.09,5,0,9,neutral,TRUE,"When Brad wakes up, he will think that the DVDs are still at the house.",TRUE
997,TRUE,6/11/19 10:29,R_2VEIeNgMCWDD6PI,53,Male,4,TRUE,3.648,6,2.596,25,cooperation,TRUE,"When Brad wakes up, he will think that the DVDs are still at the house.",TRUE
794,TRUE,6/11/19 10:33,R_2TRWr29U58Mi2vd,35,Female,4,TRUE,3.379,6,0,19,competition,TRUE,"When Brad wakes up, he will think that the DVDs are still at the house.",TRUE
1070,TRUE,6/11/19 10:33,R_29blHmruFIqdVET,24,Female,4,TRUE,1.546,6,0.863,5,cooperation,TRUE,"When Brad wakes up, he will think that the DVDs are still at the house.",TRUE
947,TRUE,6/11/19 10:34,R_3e91lKVZof2U9WM,56,Female,4,TRUE,2.466,2,1.694,28,competition,TRUE,"When Brad wakes up, he will think that the DVDs are still at the house.",TRUE
1276,TRUE,6/11/19 10:34,R_9uV7FqusAsrI1ax,42,Female,4,TRUE,1.49,4,1.898,23,neutral,TRUE,"When Brad wakes up, he will think that the DVDs are still at the house.",TRUE
2004,TRUE,6/11/19 10:36,R_2bZfbFlc8rrkvRA,59,Female,4,TRUE,3.284,5,2.124,26,cooperation,TRUE,"When Brad wakes up, he will think that the DVDs are still at the house.",TRUE
892,TRUE,6/11/19 10:36,R_8Hck8ZQYc8I6p5T,38,Male,4,TRUE,3.572,4,1.375,13,cooperation,TRUE,"When Brad wakes up, he will think that the DVDs are still at the house.",TRUE
2077,TRUE,6/11/19 10:37,R_RhrDJ0N4AIeK8KJ,51,Female,4,TRUE,3.389,4,0,30,competition,TRUE,"When Brad wakes up, he will think that the DVDs are still at the house.",TRUE
1668,TRUE,6/11/19 10:38,R_2YwWGMiMlgEZ760,32,Female,4,TRUE,1.898,3,1.273,26,competition,TRUE,"When Brad wakes up, he will think that the DVDs are still at the house.",TRUE
901,TRUE,6/11/19 10:39,R_1JILVkssYD1rZln,36,Female,4,TRUE,2.016,4,0,13,neutral,TRUE,"When Brad wakes up, he will think that the DVDs are still at the house.",TRUE
689,TRUE,6/11/19 10:39,R_czK87MCE4yRGCoV,41,Male,4,TRUE,1.35,5,2.245,21,cooperation,TRUE,"When Brad wakes up, he will think that the DVDs are still at the house.",TRUE
1550,TRUE,6/11/19 10:39,R_3GDQqDVIwWtr9nA,28,Male,4,TRUE,5.378,4,1.012,21,competition,TRUE,"When Brad wakes up, he will think that the DVDs are still at the house.",TRUE
801,TRUE,6/11/19 10:42,R_3kmEB58BUmq91w0,46,Male,4,TRUE,2.173,4,0,7,neutral,TRUE,"When Brad wakes up, he will think that the DVDs are still at the house.",TRUE
1724,TRUE,6/11/19 10:43,R_10P35mcLAnwKhWy,50,Female,4,TRUE,5.494,7,1.865,5,cooperation,TRUE,"When Brad wakes up, he will think that the DVDs are still at the house.",TRUE
286,TRUE,6/11/19 10:44,R_3OdkpJq3hbsVRWE,27,Male,4,TRUE,0.531,4,0,31,neutral,TRUE,"When Brad wakes up, he will think that the DVDs are still at the house.",TRUE
960,TRUE,6/11/19 10:44,R_3e9ojOp1TeKv1qZ,34,Male,4,TRUE,2.323,3,2.039,6,competition,TRUE,"When Brad wakes up, he will think that the DVDs are still at the house.",TRUE
2747,TRUE,6/11/19 10:44,R_1Lkjbw3WfVXlS9d,26,Female,4,TRUE,1.302,7,1.161,20,cooperation,TRUE,"When Brad wakes up, he will think that the DVDs are still at the house.",TRUE
1690,TRUE,6/11/19 10:45,R_2cmKsniFFYSx1jH,30,Male,4,TRUE,1.361,6,0,19,cooperation,TRUE,"When Brad wakes up, he will think that the DVDs are still at the house.",TRUE
655,TRUE,6/11/19 10:46,R_1DwKQDIzaUD1B7l,51,Female,4,TRUE,1.663,5,2.173,28,neutral,TRUE,"When Brad wakes up, he will think that the DVDs are still at the house.",TRUE
2643,TRUE,6/11/19 10:47,R_269ALNhnBlclbkb,40,Male,4,TRUE,1.785,2,0.599,30,cooperation,TRUE,"When Brad wakes up, he will think that the DVDs are still at the house.",TRUE
886,TRUE,6/11/19 10:47,R_2uCckPWkBCKBxYk,64,Female,4,TRUE,2.716,3,1.165,22,competition,TRUE,"When Brad wakes up, he will think that the DVDs are still at the house.",TRUE
265,TRUE,6/11/19 10:48,R_1I3QgMMx9Y6yKXx,22,Male,4,TRUE,0.559,6,0,1,neutral,TRUE,"When Brad wakes up, he will think that the DVDs are still at the house.",TRUE
1613,TRUE,6/11/19 10:48,R_3DkcaumZGBTLTE8,28,Female,4,TRUE,4.839,3,2.356,10,competition,TRUE,"When Brad wakes up, he will think that the DVDs are still at the house.",TRUE
470,TRUE,6/11/19 10:49,R_3fqs8BUhsK3xzOP,25,Male,4,TRUE,0.414,1,0.661,15,competition,TRUE,"When Brad wakes up, he will think that the DVDs are still at the house.",TRUE
808,TRUE,6/11/19 10:49,R_x3LKJl1FJ13UY9P,45,Female,4,TRUE,2.13,4,0,15,competition,TRUE,"When Brad wakes up, he will think that the DVDs are still at the house.",TRUE
708,TRUE,6/11/19 10:50,R_eyyWjPN9qCL2qwp,31,Male,4,TRUE,0,4,1.548,28,neutral,TRUE,"When Brad wakes up, he will think that the DVDs are still at the house.",TRUE
822,TRUE,6/11/19 10:50,R_2f0Xuu8UZgaJ119,21,Male,4,TRUE,0.58,3,1.187,26,neutral,TRUE,"When Brad wakes up, he will think that the DVDs are still at the house.",TRUE
811,TRUE,6/11/19 10:53,R_3JC8SnUEgNXXiMQ,34,Female,4,TRUE,1.824,7,4.371,8,cooperation,TRUE,"When Brad wakes up, he will think that the DVDs are still at the house.",TRUE
1472,TRUE,6/11/19 10:54,R_1rNFgXtar6CITN9,31,Male,4,TRUE,15.12,3,0,14,competition,TRUE,"When Brad wakes up, he will think that the DVDs are still at the house.",TRUE
1374,TRUE,6/11/19 10:56,R_2PpujFAMLP4n0Lu,58,Male,4,TRUE,3.307,5,3.632,20,cooperation,TRUE,"When Brad wakes up, he will think that the DVDs are still at the house.",TRUE
936,TRUE,6/11/19 10:56,R_0oKtUCMX4aZ2WPv,36,Female,4,TRUE,1.845,7,0.759,27,cooperation,TRUE,"When Brad wakes up, he will think that the DVDs are still at the house.",TRUE
1647,TRUE,6/11/19 10:57,R_30d8QsJfIkiO7F8,22,Female,4,TRUE,4.772,2,1.247,2,competition,TRUE,"When Brad wakes up, he will think that the DVDs are still at the house.",TRUE
1250,TRUE,6/11/19 11:04,R_YR2Kh4aQNWGzOBr,56,Male,4,TRUE,2.436,5,2.412,30,neutral,TRUE,"When Brad wakes up, he will think that the DVDs are still at the house.",TRUE
698,TRUE,6/11/19 11:08,R_e52J1yxiPEYzG5r,38,Female,4,TRUE,2.309,1,0,6,competition,TRUE,"When Brad wakes up, he will think that the DVDs are still at the house.",TRUE
766,TRUE,6/11/19 11:10,R_RJFMoJKmwY9AKMp,33,Male,4,TRUE,2.224,3,0.934,5,competition,TRUE,"When Brad wakes up, he will think that the DVDs are still at the house.",TRUE
404,TRUE,6/11/19 11:11,R_2VKNQmHBKv3OwAC,30,Female,4,TRUE,1.004,1,0.354,29,competition,TRUE,"When Brad wakes up, he will think that the DVDs are still at the house.",TRUE
827,TRUE,6/11/19 11:13,R_WlKmaf9xWFq8VGh,33,Male,4,TRUE,1.345,3,2.114,8,competition,TRUE,"When Brad wakes up, he will think that the DVDs are still at the house.",TRUE
2485,TRUE,6/11/19 11:14,R_3k54gz7YctGkmcr,40,Female,4,TRUE,0.979,6,0.512,12,cooperation,TRUE,"When Brad wakes up, he will think that the DVDs are still at the house.",TRUE
1014,TRUE,6/11/19 11:17,R_3dLGDATDaJjUZFG,43,Female,4,TRUE,1.389,3,3.522,25,competition,TRUE,"When Brad wakes up, he will think that the DVDs are still at the house.",TRUE
1526,TRUE,6/11/19 11:21,R_1rxEVsAJQmRUEtw,34,Female,4,TRUE,2.199,4,0,30,competition,TRUE,"When Brad wakes up, he will think that the DVDs are still at the house.",TRUE
2562,TRUE,6/11/19 11:24,R_vP6DUbkLNf63fNv,29,Male,4,TRUE,1.881,4,0.534,15,neutral,TRUE,"When Brad wakes up, he will think that the DVDs are still at the house.",TRUE
726,TRUE,6/11/19 11:24,R_2rwv5g0HvjCMINH,31,Female,4,TRUE,1.135,3,0.36,26,competition,TRUE,"When Brad wakes up, he will think that the DVDs are still at the house.",TRUE
1294,TRUE,6/11/19 11:26,R_2VI1XbZTJLYiBsC,52,Female,4,TRUE,13.84,7,6.559,10,neutral,TRUE,"When Brad wakes up, he will think that the DVDs are still at the house.",TRUE
1357,TRUE,6/11/19 11:27,R_3sgCUVQuqNCS49z,28,Male,4,TRUE,0.51,6,0,26,cooperation,TRUE,"When Brad wakes up, he will think that the DVDs are still at the house.",TRUE
1092,TRUE,6/11/19 11:28,R_sTeABaS570NXdzX,32,Male,4,TRUE,3.045,1,0,9,neutral,TRUE,"When Brad wakes up, he will think that the DVDs are still at the house.",TRUE
756,TRUE,6/11/19 11:32,R_1JOwHmzDAvkXI0A,33,Male,4,TRUE,0.474,4,0,30,cooperation,TRUE,"When Brad wakes up, he will think that the DVDs are still at the house.",TRUE
443,TRUE,6/11/19 11:34,R_31RgK3UZ74hAawa,25,Male,4,TRUE,0.906,3,0.669,30,neutral,TRUE,"When Brad wakes up, he will think that the DVDs are still at the house.",TRUE
1093,TRUE,6/11/19 11:35,R_1lxvJfgZkNZLDrv,47,Female,4,TRUE,3.739,4,5.846,1,cooperation,TRUE,"When Brad wakes up, he will think that the DVDs are still at the house.",TRUE
642,TRUE,6/11/19 11:38,R_2YzzmFn7hxPlU3P,31,Female,4,FALSE,4.346,5,1.361,15,cooperation,TRUE,"When Brad wakes up, he will think that the DVDs are still at the house.",FALSE
1111,TRUE,6/11/19 11:42,R_2dQgtgvLUN4VOnC,19,Female,4,TRUE,1.622,4,0.713,28,competition,TRUE,"When Brad wakes up, he will think that the DVDs are still at the house.",TRUE
1638,TRUE,6/11/19 11:43,R_3MAlInCEGkDn9q6,44,Male,4,TRUE,1.598,5,1.496,7,cooperation,TRUE,"When Brad wakes up, he will think that the DVDs are still at the house.",TRUE
643,TRUE,6/11/19 11:48,R_tXndXrczjfmXjpv,44,Male,4,TRUE,2.226,1,1.049,21,cooperation,TRUE,"When Brad wakes up, he will think that the DVDs are still at the house.",TRUE
609,TRUE,6/11/19 11:59,R_ZwU8GWTWZK6EAxP,37,Female,4,TRUE,1.298,6,0,22,neutral,TRUE,"When Brad wakes up, he will think that the DVDs are still at the house.",TRUE
1211,TRUE,6/11/19 11:59,R_2BtDYM5U0ZrGCUB,45,Female,4,TRUE,3.306,6,0,10,cooperation,TRUE,"When Brad wakes up, he will think that the DVDs are still at the house.",TRUE
1037,TRUE,6/11/19 12:05,R_2YyA7VHI4VbWKr3,33,Male,4,TRUE,1.723,4,1.005,1,neutral,TRUE,"When Brad wakes up, he will think that the DVDs are still at the house.",TRUE
1552,TRUE,6/11/19 12:41,R_1MM3vx8EaIJeH6y,33,Male,4,TRUE,2.671,4,0,22,cooperation,TRUE,"When Brad wakes up, he will think that the DVDs are still at the house.",TRUE
793,TRUE,6/11/19 12:49,R_yvSkxw8Y8PIpXbP,58,Female,4,TRUE,3.058,6,1.844,2,cooperation,TRUE,"When Brad wakes up, he will think that the DVDs are still at the house.",TRUE
1000,TRUE,6/11/19 13:37,R_25YBNmGFBPU4uAS,21,Male,4,FALSE,7.671,1,0,3,neutral,TRUE,"When Brad wakes up, he will think that the DVDs are still at the house.",FALSE
296,TRUE,6/11/19 10:03,R_3nlt53Yxgvz7sUa,35,Male,5,FALSE,0.385,4,0,19,competition,TRUE,"While Davon is outside, he will think that his desk is cleared of any items.",FALSE
655,TRUE,6/11/19 10:10,R_ZLis8sRowpk9PvX,41,Female,5,TRUE,1.492,5,1.611,27,cooperation,TRUE,"While Davon is outside, he will think that his desk is cleared of any items.",TRUE
748,TRUE,6/11/19 10:10,R_5aKNWSi3ewXI0Br,23,Male,5,TRUE,4.134,3,3.023,1,neutral,TRUE,"While Davon is outside, he will think that his desk is cleared of any items.",TRUE
528,TRUE,6/11/19 10:11,R_73NCcJkqe8nX3pL,35,Male,5,TRUE,0.77,3,1.011,13,neutral,TRUE,"While Davon is outside, he will think that his desk is cleared of any items.",TRUE
755,TRUE,6/11/19 10:11,R_1itjXKj7aJ26xlY,50,Male,5,TRUE,2.462,2,1.206,5,competition,TRUE,"While Davon is outside, he will think that his desk is cleared of any items.",TRUE
677,TRUE,6/11/19 10:11,R_2xEQOcbagTC5K31,27,Female,5,TRUE,1.256,3,0,13,neutral,TRUE,"While Davon is outside, he will think that his desk is cleared of any items.",TRUE
772,TRUE,6/11/19 10:11,R_sjyOcu2i5Cs3KPD,40,Male,5,TRUE,2.675,4,0.74,25,neutral,TRUE,"While Davon is outside, he will think that his desk is cleared of any items.",TRUE
735,TRUE,6/11/19 10:11,R_2DMiqHkr8WXICHg,32,Female,5,TRUE,1.691,2,0,15,cooperation,TRUE,"While Davon is outside, he will think that his desk is cleared of any items.",TRUE
500,TRUE,6/11/19 10:12,R_2tyaL54hsNnBGiE,35,Male,5,TRUE,2.761,4,1.993,15,competition,TRUE,"While Davon is outside, he will think that his desk is cleared of any items.",TRUE
818,TRUE,6/11/19 10:12,R_Qh6cdqFytPFsV3P,28,Female,5,FALSE,2.187,4,2.085,30,cooperation,TRUE,"While Davon is outside, he will think that his desk is cleared of any items.",FALSE
737,TRUE,6/11/19 10:12,R_3k7XpgJaA2P1mMl,29,Male,5,TRUE,2.748,4,0,20,neutral,TRUE,"While Davon is outside, he will think that his desk is cleared of any items.",TRUE
831,TRUE,6/11/19 10:12,R_3n7UxfN5J3GD59s,55,Male,5,TRUE,3.494,7,0.656,30,cooperation,TRUE,"While Davon is outside, he will think that his desk is cleared of any items.",TRUE
819,TRUE,6/11/19 10:12,R_2dHltfvDoR6dDRT,31,Male,5,TRUE,1.736,2,0.801,7,neutral,TRUE,"While Davon is outside, he will think that his desk is cleared of any items.",TRUE
764,TRUE,6/11/19 10:13,R_3JJylNort6ur6sS,21,Male,5,TRUE,2.3,1,0,21,neutral,TRUE,"While Davon is outside, he will think that his desk is cleared of any items.",TRUE
898,TRUE,6/11/19 10:13,R_2BsoiDyVxkWuZ8o,47,Male,5,TRUE,2.498,5,1.827,4,neutral,TRUE,"While Davon is outside, he will think that his desk is cleared of any items.",TRUE
820,TRUE,6/11/19 10:14,R_21ooKFhcfIWZ74P,35,Male,5,FALSE,3.571,6,0,21,cooperation,TRUE,"While Davon is outside, he will think that his desk is cleared of any items.",FALSE
931,TRUE,6/11/19 10:14,R_UyANc1QsKeLFV4t,28,Female,5,TRUE,3.457,5,1.156,24,cooperation,TRUE,"While Davon is outside, he will think that his desk is cleared of any items.",TRUE
530,TRUE,6/11/19 10:15,R_1d148ARgkkhTuhj,31,Male,5,TRUE,4.618,2,0.756,6,competition,TRUE,"While Davon is outside, he will think that his desk is cleared of any items.",TRUE
997,TRUE,6/11/19 10:15,R_2z8inlLrpl77PQ7,30,Male,5,TRUE,2.872,4,1.935,17,cooperation,TRUE,"While Davon is outside, he will think that his desk is cleared of any items.",TRUE
956,TRUE,6/11/19 10:16,R_CdF5GMFiGS5KcHD,37,Male,5,TRUE,2.328,4,0,13,neutral,TRUE,"While Davon is outside, he will think that his desk is cleared of any items.",TRUE
1075,TRUE,6/11/19 10:16,R_2trOvSxSAJkEHCg,29,Male,5,TRUE,2.879,2,0,19,competition,TRUE,"While Davon is outside, he will think that his desk is cleared of any items.",TRUE
959,TRUE,6/11/19 10:16,R_1myjjiv96Mndvet,41,Female,5,TRUE,4.168,1,0.519,12,competition,TRUE,"While Davon is outside, he will think that his desk is cleared of any items.",TRUE
1162,TRUE,6/11/19 10:18,R_1omSlECSpgsqhsR,28,Female,5,TRUE,2.114,5,0,29,competition,TRUE,"While Davon is outside, he will think that his desk is cleared of any items.",TRUE
1047,TRUE,6/11/19 10:18,R_2YtVD8wLevQUfn3,58,Female,5,FALSE,0.151,4,0.271,15,neutral,TRUE,"While Davon is outside, he will think that his desk is cleared of any items.",FALSE
712,TRUE,6/11/19 10:18,R_pKjvBYAYxQE8WXL,30,Male,5,TRUE,2.543,2,0,25,competition,TRUE,"While Davon is outside, he will think that his desk is cleared of any items.",TRUE
594,TRUE,6/11/19 10:21,R_8dj2lxJavrkg157,26,Male,5,TRUE,3.44,4,3.078,1,neutral,TRUE,"While Davon is outside, he will think that his desk is cleared of any items.",TRUE
1438,TRUE,6/11/19 10:22,R_1IFpRvvaYecmO6u,39,Female,5,TRUE,0.801,4,1.932,20,neutral,TRUE,"While Davon is outside, he will think that his desk is cleared of any items.",TRUE
946,TRUE,6/11/19 10:24,R_2aOYOkpwV5YFXyw,56,Female,5,TRUE,5.162,1,0.967,26,competition,TRUE,"While Davon is outside, he will think that his desk is cleared of any items.",TRUE
1583,TRUE,6/11/19 10:25,R_1d6q1wNaxE5Lxx8,55,Male,5,TRUE,15.484,1,2.002,3,competition,TRUE,"While Davon is outside, he will think that his desk is cleared of any items.",TRUE
706,TRUE,6/11/19 10:26,R_3nGjUrYlrB1utE8,29,Male,5,TRUE,2.13,6,0.249,17,neutral,TRUE,"While Davon is outside, he will think that his desk is cleared of any items.",TRUE
631,TRUE,6/11/19 10:26,R_3FPZz0NRyA1ktiZ,36,Female,5,TRUE,3.389,1,0.947,5,competition,TRUE,"While Davon is outside, he will think that his desk is cleared of any items.",TRUE
802,TRUE,6/11/19 10:26,R_9SsAPK496CzasIF,57,Male,5,TRUE,2.188,6,2.706,16,neutral,TRUE,"While Davon is outside, he will think that his desk is cleared of any items.",TRUE
1523,TRUE,6/11/19 10:26,R_3nMdAmRDcLsubDw,51,Male,5,TRUE,7.469,6,3.824,28,cooperation,TRUE,"While Davon is outside, he will think that his desk is cleared of any items.",TRUE
360,TRUE,6/11/19 10:26,R_Atlru3d68LtFty9,25,Female,5,TRUE,0,6,0.3,14,competition,TRUE,"While Davon is outside, he will think that his desk is cleared of any items.",TRUE
759,TRUE,6/11/19 10:29,R_1imN1YnW2WzRUPb,28,Male,5,FALSE,6.88,4,0,19,neutral,TRUE,"While Davon is outside, he will think that his desk is cleared of any items.",FALSE
957,TRUE,6/11/19 10:29,R_2zSWMEDaoL1SOAu,31,Male,5,TRUE,5.264,7,2.087,18,cooperation,TRUE,"While Davon is outside, he will think that his desk is cleared of any items.",TRUE
889,TRUE,6/11/19 10:29,R_3nDf4drFoPVOrBw,25,Male,5,TRUE,7.245,6,0,24,cooperation,TRUE,"While Davon is outside, he will think that his desk is cleared of any items.",TRUE
997,TRUE,6/11/19 10:29,R_2VEIeNgMCWDD6PI,53,Male,5,TRUE,4.049,5,2.368,31,neutral,TRUE,"While Davon is outside, he will think that his desk is cleared of any items.",TRUE
794,TRUE,6/11/19 10:33,R_2TRWr29U58Mi2vd,35,Female,5,FALSE,0,5,1.644,26,neutral,TRUE,"While Davon is outside, he will think that his desk is cleared of any items.",FALSE
1070,TRUE,6/11/19 10:33,R_29blHmruFIqdVET,24,Female,5,TRUE,1.693,2,3.289,29,competition,TRUE,"While Davon is outside, he will think that his desk is cleared of any items.",TRUE
947,TRUE,6/11/19 10:34,R_3e91lKVZof2U9WM,56,Female,5,TRUE,2.63,6,0.509,18,cooperation,TRUE,"While Davon is outside, he will think that his desk is cleared of any items.",TRUE
1276,TRUE,6/11/19 10:34,R_9uV7FqusAsrI1ax,42,Female,5,TRUE,3.821,6,1.137,21,cooperation,TRUE,"While Davon is outside, he will think that his desk is cleared of any items.",TRUE
2004,TRUE,6/11/19 10:36,R_2bZfbFlc8rrkvRA,59,Female,5,TRUE,3.26,1,0.862,12,competition,TRUE,"While Davon is outside, he will think that his desk is cleared of any items.",TRUE
892,TRUE,6/11/19 10:36,R_8Hck8ZQYc8I6p5T,38,Male,5,TRUE,3.794,1,0.832,28,competition,TRUE,"While Davon is outside, he will think that his desk is cleared of any items.",TRUE
2077,TRUE,6/11/19 10:37,R_RhrDJ0N4AIeK8KJ,51,Female,5,TRUE,2.023,1,2.562,7,competition,TRUE,"While Davon is outside, he will think that his desk is cleared of any items.",TRUE
1668,TRUE,6/11/19 10:38,R_2YwWGMiMlgEZ760,32,Female,5,TRUE,1.992,2,1.06,21,competition,TRUE,"While Davon is outside, he will think that his desk is cleared of any items.",TRUE
901,TRUE,6/11/19 10:39,R_1JILVkssYD1rZln,36,Female,5,TRUE,2.562,4,0.546,25,cooperation,TRUE,"While Davon is outside, he will think that his desk is cleared of any items.",TRUE
689,TRUE,6/11/19 10:39,R_czK87MCE4yRGCoV,41,Male,5,TRUE,1.532,1,0,22,competition,TRUE,"While Davon is outside, he will think that his desk is cleared of any items.",TRUE
1550,TRUE,6/11/19 10:39,R_3GDQqDVIwWtr9nA,28,Male,5,FALSE,13.71,5,4.144,4,competition,TRUE,"While Davon is outside, he will think that his desk is cleared of any items.",FALSE
801,TRUE,6/11/19 10:42,R_3kmEB58BUmq91w0,46,Male,5,FALSE,3.164,7,0,14,cooperation,TRUE,"While Davon is outside, he will think that his desk is cleared of any items.",FALSE
1724,TRUE,6/11/19 10:43,R_10P35mcLAnwKhWy,50,Female,5,TRUE,1.8,4,1.146,12,neutral,TRUE,"While Davon is outside, he will think that his desk is cleared of any items.",TRUE
286,TRUE,6/11/19 10:44,R_3OdkpJq3hbsVRWE,27,Male,5,FALSE,0.823,4,1.052,19,cooperation,TRUE,"While Davon is outside, he will think that his desk is cleared of any items.",FALSE
960,TRUE,6/11/19 10:44,R_3e9ojOp1TeKv1qZ,34,Male,5,TRUE,2.951,1,0.519,28,competition,TRUE,"While Davon is outside, he will think that his desk is cleared of any items.",TRUE
2747,TRUE,6/11/19 10:44,R_1Lkjbw3WfVXlS9d,26,Female,5,TRUE,19.966,4,1.867,23,competition,TRUE,"While Davon is outside, he will think that his desk is cleared of any items.",TRUE
1690,TRUE,6/11/19 10:45,R_2cmKsniFFYSx1jH,30,Male,5,TRUE,1.163,6,0,25,neutral,TRUE,"While Davon is outside, he will think that his desk is cleared of any items.",TRUE
655,TRUE,6/11/19 10:46,R_1DwKQDIzaUD1B7l,51,Female,5,TRUE,2.107,4,0.744,30,cooperation,TRUE,"While Davon is outside, he will think that his desk is cleared of any items.",TRUE
2643,TRUE,6/11/19 10:47,R_269ALNhnBlclbkb,40,Male,5,TRUE,1.217,2,3.867,26,competition,TRUE,"While Davon is outside, he will think that his desk is cleared of any items.",TRUE
886,TRUE,6/11/19 10:47,R_2uCckPWkBCKBxYk,64,Female,5,TRUE,2.913,7,0.928,31,cooperation,TRUE,"While Davon is outside, he will think that his desk is cleared of any items.",TRUE
265,TRUE,6/11/19 10:48,R_1I3QgMMx9Y6yKXx,22,Male,5,TRUE,0.333,4,0,19,competition,TRUE,"While Davon is outside, he will think that his desk is cleared of any items.",TRUE
1613,TRUE,6/11/19 10:48,R_3DkcaumZGBTLTE8,28,Female,5,TRUE,5.428,5,1.3,23,cooperation,TRUE,"While Davon is outside, he will think that his desk is cleared of any items.",TRUE
470,TRUE,6/11/19 10:49,R_3fqs8BUhsK3xzOP,25,Male,5,TRUE,3.007,1,0.263,19,competition,TRUE,"While Davon is outside, he will think that his desk is cleared of any items.",TRUE
808,TRUE,6/11/19 10:49,R_x3LKJl1FJ13UY9P,45,Female,5,TRUE,3.503,5,1.573,19,cooperation,TRUE,"While Davon is outside, he will think that his desk is cleared of any items.",TRUE
708,TRUE,6/11/19 10:50,R_eyyWjPN9qCL2qwp,31,Male,5,FALSE,0,4,1.882,3,cooperation,TRUE,"While Davon is outside, he will think that his desk is cleared of any items.",FALSE
822,TRUE,6/11/19 10:50,R_2f0Xuu8UZgaJ119,21,Male,5,TRUE,0.432,4,0,14,neutral,TRUE,"While Davon is outside, he will think that his desk is cleared of any items.",TRUE
811,TRUE,6/11/19 10:53,R_3JC8SnUEgNXXiMQ,34,Female,5,FALSE,4.063,1,0,17,neutral,TRUE,"While Davon is outside, he will think that his desk is cleared of any items.",FALSE
1472,TRUE,6/11/19 10:54,R_1rNFgXtar6CITN9,31,Male,5,TRUE,1.819,5,2.781,4,cooperation,TRUE,"While Davon is outside, he will think that his desk is cleared of any items.",TRUE
1374,TRUE,6/11/19 10:56,R_2PpujFAMLP4n0Lu,58,Male,5,TRUE,4.711,2,2.365,25,competition,TRUE,"While Davon is outside, he will think that his desk is cleared of any items.",TRUE
936,TRUE,6/11/19 10:56,R_0oKtUCMX4aZ2WPv,36,Female,5,TRUE,3.901,7,0.861,16,cooperation,TRUE,"While Davon is outside, he will think that his desk is cleared of any items.",TRUE
1647,TRUE,6/11/19 10:57,R_30d8QsJfIkiO7F8,22,Female,5,TRUE,24.399,4,0.736,6,neutral,TRUE,"While Davon is outside, he will think that his desk is cleared of any items.",TRUE
1250,TRUE,6/11/19 11:04,R_YR2Kh4aQNWGzOBr,56,Male,5,TRUE,5.392,6,1.746,13,cooperation,TRUE,"While Davon is outside, he will think that his desk is cleared of any items.",TRUE
698,TRUE,6/11/19 11:08,R_e52J1yxiPEYzG5r,38,Female,5,TRUE,2.641,1,0,5,competition,TRUE,"While Davon is outside, he will think that his desk is cleared of any items.",TRUE
766,TRUE,6/11/19 11:10,R_RJFMoJKmwY9AKMp,33,Male,5,TRUE,6.819,1,0,6,competition,TRUE,"While Davon is outside, he will think that his desk is cleared of any items.",TRUE
404,TRUE,6/11/19 11:11,R_2VKNQmHBKv3OwAC,30,Female,5,TRUE,1.11,6,0.818,4,neutral,TRUE,"While Davon is outside, he will think that his desk is cleared of any items.",TRUE
827,TRUE,6/11/19 11:13,R_WlKmaf9xWFq8VGh,33,Male,5,FALSE,2.045,1,1.085,24,competition,TRUE,"While Davon is outside, he will think that his desk is cleared of any items.",FALSE
2485,TRUE,6/11/19 11:14,R_3k54gz7YctGkmcr,40,Female,5,TRUE,1.222,4,1.421,23,neutral,TRUE,"While Davon is outside, he will think that his desk is cleared of any items.",TRUE
1014,TRUE,6/11/19 11:17,R_3dLGDATDaJjUZFG,43,Female,5,TRUE,5.07,2,1.972,2,competition,TRUE,"While Davon is outside, he will think that his desk is cleared of any items.",TRUE
1526,TRUE,6/11/19 11:21,R_1rxEVsAJQmRUEtw,34,Female,5,TRUE,3.32,5,0.967,9,cooperation,TRUE,"While Davon is outside, he will think that his desk is cleared of any items.",TRUE
2562,TRUE,6/11/19 11:24,R_vP6DUbkLNf63fNv,29,Male,5,TRUE,2.704,5,0.985,6,cooperation,TRUE,"While Davon is outside, he will think that his desk is cleared of any items.",TRUE
726,TRUE,6/11/19 11:24,R_2rwv5g0HvjCMINH,31,Female,5,TRUE,1.244,2,0,21,competition,TRUE,"While Davon is outside, he will think that his desk is cleared of any items.",TRUE
1294,TRUE,6/11/19 11:26,R_2VI1XbZTJLYiBsC,52,Female,5,TRUE,15.428,2,8.55,2,competition,TRUE,"While Davon is outside, he will think that his desk is cleared of any items.",TRUE
1357,TRUE,6/11/19 11:27,R_3sgCUVQuqNCS49z,28,Male,5,TRUE,0.332,6,0,18,neutral,TRUE,"While Davon is outside, he will think that his desk is cleared of any items.",TRUE
1092,TRUE,6/11/19 11:28,R_sTeABaS570NXdzX,32,Male,5,FALSE,6.18,1,1.494,19,competition,TRUE,"While Davon is outside, he will think that his desk is cleared of any items.",FALSE
756,TRUE,6/11/19 11:32,R_1JOwHmzDAvkXI0A,33,Male,5,TRUE,1.871,4,0,6,neutral,TRUE,"While Davon is outside, he will think that his desk is cleared of any items.",TRUE
443,TRUE,6/11/19 11:34,R_31RgK3UZ74hAawa,25,Male,5,TRUE,1.472,5,0,12,cooperation,TRUE,"While Davon is outside, he will think that his desk is cleared of any items.",TRUE
1093,TRUE,6/11/19 11:35,R_1lxvJfgZkNZLDrv,47,Female,5,TRUE,6.06,5,2.504,4,neutral,TRUE,"While Davon is outside, he will think that his desk is cleared of any items.",TRUE
642,TRUE,6/11/19 11:38,R_2YzzmFn7hxPlU3P,31,Female,5,FALSE,8.139,6,9.847,11,neutral,TRUE,"While Davon is outside, he will think that his desk is cleared of any items.",FALSE
1111,TRUE,6/11/19 11:42,R_2dQgtgvLUN4VOnC,19,Female,5,FALSE,2.075,7,0.995,12,cooperation,TRUE,"While Davon is outside, he will think that his desk is cleared of any items.",FALSE
1638,TRUE,6/11/19 11:43,R_3MAlInCEGkDn9q6,44,Male,5,TRUE,4.1,2,0,26,neutral,TRUE,"While Davon is outside, he will think that his desk is cleared of any items.",TRUE
643,TRUE,6/11/19 11:48,R_tXndXrczjfmXjpv,44,Male,5,TRUE,4.413,3,1.492,4,neutral,TRUE,"While Davon is outside, he will think that his desk is cleared of any items.",TRUE
609,TRUE,6/11/19 11:59,R_ZwU8GWTWZK6EAxP,37,Female,5,TRUE,1.707,1,0.974,23,competition,TRUE,"While Davon is outside, he will think that his desk is cleared of any items.",TRUE
1211,TRUE,6/11/19 11:59,R_2BtDYM5U0ZrGCUB,45,Female,5,TRUE,20.286,1,5.783,1,competition,TRUE,"While Davon is outside, he will think that his desk is cleared of any items.",TRUE
1037,TRUE,6/11/19 12:05,R_2YyA7VHI4VbWKr3,33,Male,5,TRUE,1.536,3,0.854,17,neutral,TRUE,"While Davon is outside, he will think that his desk is cleared of any items.",TRUE
1552,TRUE,6/11/19 12:41,R_1MM3vx8EaIJeH6y,33,Male,5,TRUE,3.074,6,0,5,neutral,TRUE,"While Davon is outside, he will think that his desk is cleared of any items.",TRUE
793,TRUE,6/11/19 12:49,R_yvSkxw8Y8PIpXbP,58,Female,5,TRUE,2.87,4,3.2,30,neutral,TRUE,"While Davon is outside, he will think that his desk is cleared of any items.",TRUE
1000,TRUE,6/11/19 13:37,R_25YBNmGFBPU4uAS,21,Male,5,TRUE,2.585,4,0,23,cooperation,TRUE,"While Davon is outside, he will think that his desk is cleared of any items.",TRUE
296,TRUE,6/11/19 10:03,R_3nlt53Yxgvz7sUa,35,Male,6,TRUE,0.53,4,0,2,neutral,TRUE,"While Trevor is away, he will think that his soup needs more spice.",TRUE
655,TRUE,6/11/19 10:10,R_ZLis8sRowpk9PvX,41,Female,6,TRUE,3.618,1,1.395,25,competition,TRUE,"While Trevor is away, he will think that his soup needs more spice.",TRUE
748,TRUE,6/11/19 10:10,R_5aKNWSi3ewXI0Br,23,Male,6,TRUE,1.483,2,2.812,19,cooperation,TRUE,"While Trevor is away, he will think that his soup needs more spice.",TRUE
528,TRUE,6/11/19 10:11,R_73NCcJkqe8nX3pL,35,Male,6,FALSE,1.09,2,0.291,19,competition,TRUE,"While Trevor is away, he will think that his soup needs more spice.",FALSE
755,TRUE,6/11/19 10:11,R_1itjXKj7aJ26xlY,50,Male,6,TRUE,2.842,1,0.74,30,competition,TRUE,"While Trevor is away, he will think that his soup needs more spice.",TRUE
677,TRUE,6/11/19 10:11,R_2xEQOcbagTC5K31,27,Female,6,TRUE,2.339,7,1.684,24,cooperation,TRUE,"While Trevor is away, he will think that his soup needs more spice.",TRUE
772,TRUE,6/11/19 10:11,R_sjyOcu2i5Cs3KPD,40,Male,6,TRUE,3.641,4,0.768,22,cooperation,TRUE,"While Trevor is away, he will think that his soup needs more spice.",TRUE
735,TRUE,6/11/19 10:11,R_2DMiqHkr8WXICHg,32,Female,6,TRUE,2.037,1,0,7,competition,TRUE,"While Trevor is away, he will think that his soup needs more spice.",TRUE
500,TRUE,6/11/19 10:12,R_2tyaL54hsNnBGiE,35,Male,6,FALSE,2.424,5,0,2,cooperation,TRUE,"While Trevor is away, he will think that his soup needs more spice.",FALSE
818,TRUE,6/11/19 10:12,R_Qh6cdqFytPFsV3P,28,Female,6,TRUE,5.562,1,6.004,17,competition,TRUE,"While Trevor is away, he will think that his soup needs more spice.",TRUE
737,TRUE,6/11/19 10:12,R_3k7XpgJaA2P1mMl,29,Male,6,TRUE,3.973,3,0,13,neutral,TRUE,"While Trevor is away, he will think that his soup needs more spice.",TRUE
831,TRUE,6/11/19 10:12,R_3n7UxfN5J3GD59s,55,Male,6,TRUE,2.339,4,1.472,24,neutral,TRUE,"While Trevor is away, he will think that his soup needs more spice.",TRUE
819,TRUE,6/11/19 10:12,R_2dHltfvDoR6dDRT,31,Male,6,TRUE,1.491,4,1.774,23,cooperation,TRUE,"While Trevor is away, he will think that his soup needs more spice.",TRUE
764,TRUE,6/11/19 10:13,R_3JJylNort6ur6sS,21,Male,6,FALSE,5.953,2,1.261,17,cooperation,TRUE,"While Trevor is away, he will think that his soup needs more spice.",FALSE
898,TRUE,6/11/19 10:13,R_2BsoiDyVxkWuZ8o,47,Male,6,FALSE,10.46,5,1.348,28,cooperation,TRUE,"While Trevor is away, he will think that his soup needs more spice.",FALSE
820,TRUE,6/11/19 10:14,R_21ooKFhcfIWZ74P,35,Male,6,TRUE,4.375,1,1.352,6,competition,TRUE,"While Trevor is away, he will think that his soup needs more spice.",TRUE
931,TRUE,6/11/19 10:14,R_UyANc1QsKeLFV4t,28,Female,6,TRUE,3.125,5,1.72,5,cooperation,TRUE,"While Trevor is away, he will think that his soup needs more spice.",TRUE
530,TRUE,6/11/19 10:15,R_1d148ARgkkhTuhj,31,Male,6,TRUE,1.843,4,0.956,7,neutral,TRUE,"While Trevor is away, he will think that his soup needs more spice.",TRUE
997,TRUE,6/11/19 10:15,R_2z8inlLrpl77PQ7,30,Male,6,TRUE,3.244,4,0,28,cooperation,TRUE,"While Trevor is away, he will think that his soup needs more spice.",TRUE
956,TRUE,6/11/19 10:16,R_CdF5GMFiGS5KcHD,37,Male,6,FALSE,1.865,4,0.41,7,cooperation,TRUE,"While Trevor is away, he will think that his soup needs more spice.",FALSE
1075,TRUE,6/11/19 10:16,R_2trOvSxSAJkEHCg,29,Male,6,TRUE,3.775,1,0.984,20,competition,TRUE,"While Trevor is away, he will think that his soup needs more spice.",TRUE
959,TRUE,6/11/19 10:16,R_1myjjiv96Mndvet,41,Female,6,TRUE,2.037,5,1.418,4,cooperation,TRUE,"While Trevor is away, he will think that his soup needs more spice.",TRUE
1162,TRUE,6/11/19 10:18,R_1omSlECSpgsqhsR,28,Female,6,TRUE,2.333,6,0,13,cooperation,TRUE,"While Trevor is away, he will think that his soup needs more spice.",TRUE
1047,TRUE,6/11/19 10:18,R_2YtVD8wLevQUfn3,58,Female,6,TRUE,29.26,6,0,2,neutral,TRUE,"While Trevor is away, he will think that his soup needs more spice.",TRUE
712,TRUE,6/11/19 10:18,R_pKjvBYAYxQE8WXL,30,Male,6,FALSE,1.781,1,0,5,competition,TRUE,"While Trevor is away, he will think that his soup needs more spice.",FALSE
594,TRUE,6/11/19 10:21,R_8dj2lxJavrkg157,26,Male,6,TRUE,2.84,4,0,8,cooperation,TRUE,"While Trevor is away, he will think that his soup needs more spice.",TRUE
1438,TRUE,6/11/19 10:22,R_1IFpRvvaYecmO6u,39,Female,6,TRUE,1.695,3,1.06,30,cooperation,TRUE,"While Trevor is away, he will think that his soup needs more spice.",TRUE
946,TRUE,6/11/19 10:24,R_2aOYOkpwV5YFXyw,56,Female,6,TRUE,4.027,3,0,6,neutral,TRUE,"While Trevor is away, he will think that his soup needs more spice.",TRUE
1583,TRUE,6/11/19 10:25,R_1d6q1wNaxE5Lxx8,55,Male,6,FALSE,2.833,4,0,21,cooperation,TRUE,"While Trevor is away, he will think that his soup needs more spice.",FALSE
706,TRUE,6/11/19 10:26,R_3nGjUrYlrB1utE8,29,Male,6,TRUE,1.349,1,0,25,competition,TRUE,"While Trevor is away, he will think that his soup needs more spice.",TRUE
631,TRUE,6/11/19 10:26,R_3FPZz0NRyA1ktiZ,36,Female,6,TRUE,3.395,1,0.283,21,competition,TRUE,"While Trevor is away, he will think that his soup needs more spice.",TRUE
802,TRUE,6/11/19 10:26,R_9SsAPK496CzasIF,57,Male,6,TRUE,2.46,1,1.438,11,competition,TRUE,"While Trevor is away, he will think that his soup needs more spice.",TRUE
1523,TRUE,6/11/19 10:26,R_3nMdAmRDcLsubDw,51,Male,6,TRUE,7.64,1,1.549,4,competition,TRUE,"While Trevor is away, he will think that his soup needs more spice.",TRUE
360,TRUE,6/11/19 10:26,R_Atlru3d68LtFty9,25,Female,6,TRUE,0.591,6,0,4,cooperation,TRUE,"While Trevor is away, he will think that his soup needs more spice.",TRUE
759,TRUE,6/11/19 10:29,R_1imN1YnW2WzRUPb,28,Male,6,TRUE,1.35,3,0,27,cooperation,TRUE,"While Trevor is away, he will think that his soup needs more spice.",TRUE
957,TRUE,6/11/19 10:29,R_2zSWMEDaoL1SOAu,31,Male,6,TRUE,9.996,4,2.264,13,neutral,TRUE,"While Trevor is away, he will think that his soup needs more spice.",TRUE
889,TRUE,6/11/19 10:29,R_3nDf4drFoPVOrBw,25,Male,6,TRUE,3.047,4,0,12,neutral,TRUE,"While Trevor is away, he will think that his soup needs more spice.",TRUE
997,TRUE,6/11/19 10:29,R_2VEIeNgMCWDD6PI,53,Male,6,TRUE,3.477,2,0,9,competition,TRUE,"While Trevor is away, he will think that his soup needs more spice.",TRUE
794,TRUE,6/11/19 10:33,R_2TRWr29U58Mi2vd,35,Female,6,TRUE,4.209,5,0,5,neutral,TRUE,"While Trevor is away, he will think that his soup needs more spice.",TRUE
1070,TRUE,6/11/19 10:33,R_29blHmruFIqdVET,24,Female,6,TRUE,2.611,4,0.5,19,neutral,TRUE,"While Trevor is away, he will think that his soup needs more spice.",TRUE
947,TRUE,6/11/19 10:34,R_3e91lKVZof2U9WM,56,Female,6,TRUE,2.702,5,0.444,27,cooperation,TRUE,"While Trevor is away, he will think that his soup needs more spice.",TRUE
1276,TRUE,6/11/19 10:34,R_9uV7FqusAsrI1ax,42,Female,6,TRUE,3.695,1,1.182,26,competition,TRUE,"While Trevor is away, he will think that his soup needs more spice.",TRUE
2004,TRUE,6/11/19 10:36,R_2bZfbFlc8rrkvRA,59,Female,6,TRUE,3.673,3,3.332,7,neutral,TRUE,"While Trevor is away, he will think that his soup needs more spice.",TRUE
892,TRUE,6/11/19 10:36,R_8Hck8ZQYc8I6p5T,38,Male,6,TRUE,2.598,2,0,26,competition,TRUE,"While Trevor is away, he will think that his soup needs more spice.",TRUE
2077,TRUE,6/11/19 10:37,R_RhrDJ0N4AIeK8KJ,51,Female,6,FALSE,3.954,1,5.744,6,competition,TRUE,"While Trevor is away, he will think that his soup needs more spice.",FALSE
1668,TRUE,6/11/19 10:38,R_2YwWGMiMlgEZ760,32,Female,6,TRUE,2.802,4,1.813,9,cooperation,TRUE,"While Trevor is away, he will think that his soup needs more spice.",TRUE
901,TRUE,6/11/19 10:39,R_1JILVkssYD1rZln,36,Female,6,TRUE,2.144,4,0.722,23,cooperation,TRUE,"While Trevor is away, he will think that his soup needs more spice.",TRUE
689,TRUE,6/11/19 10:39,R_czK87MCE4yRGCoV,41,Male,6,TRUE,4.581,4,2.77,1,cooperation,TRUE,"While Trevor is away, he will think that his soup needs more spice.",TRUE
1550,TRUE,6/11/19 10:39,R_3GDQqDVIwWtr9nA,28,Male,6,TRUE,16.901,4,1.075,9,competition,TRUE,"While Trevor is away, he will think that his soup needs more spice.",TRUE
801,TRUE,6/11/19 10:42,R_3kmEB58BUmq91w0,46,Male,6,TRUE,3.34,3,3.199,2,neutral,TRUE,"While Trevor is away, he will think that his soup needs more spice.",TRUE
1724,TRUE,6/11/19 10:43,R_10P35mcLAnwKhWy,50,Female,6,TRUE,4.529,1,3.21,22,competition,TRUE,"While Trevor is away, he will think that his soup needs more spice.",TRUE
286,TRUE,6/11/19 10:44,R_3OdkpJq3hbsVRWE,27,Male,6,FALSE,0.658,2,0.653,9,cooperation,TRUE,"While Trevor is away, he will think that his soup needs more spice.",FALSE
960,TRUE,6/11/19 10:44,R_3e9ojOp1TeKv1qZ,34,Male,6,TRUE,4.279,4,2.637,3,neutral,TRUE,"While Trevor is away, he will think that his soup needs more spice.",TRUE
2747,TRUE,6/11/19 10:44,R_1Lkjbw3WfVXlS9d,26,Female,6,TRUE,0.629,6,1.567,31,cooperation,TRUE,"While Trevor is away, he will think that his soup needs more spice.",TRUE
1690,TRUE,6/11/19 10:45,R_2cmKsniFFYSx1jH,30,Male,6,TRUE,2.345,6,0,29,cooperation,TRUE,"While Trevor is away, he will think that his soup needs more spice.",TRUE
655,TRUE,6/11/19 10:46,R_1DwKQDIzaUD1B7l,51,Female,6,TRUE,1.657,4,0.791,24,cooperation,TRUE,"While Trevor is away, he will think that his soup needs more spice.",TRUE
2643,TRUE,6/11/19 10:47,R_269ALNhnBlclbkb,40,Male,6,TRUE,4.015,1,1.039,27,competition,TRUE,"While Trevor is away, he will think that his soup needs more spice.",TRUE
886,TRUE,6/11/19 10:47,R_2uCckPWkBCKBxYk,64,Female,6,TRUE,2.538,3,2.461,5,neutral,TRUE,"While Trevor is away, he will think that his soup needs more spice.",TRUE
265,TRUE,6/11/19 10:48,R_1I3QgMMx9Y6yKXx,22,Male,6,FALSE,0.367,5,0.349,11,neutral,TRUE,"While Trevor is away, he will think that his soup needs more spice.",FALSE
1613,TRUE,6/11/19 10:48,R_3DkcaumZGBTLTE8,28,Female,6,TRUE,6,1,2.1,2,competition,TRUE,"While Trevor is away, he will think that his soup needs more spice.",TRUE
470,TRUE,6/11/19 10:49,R_3fqs8BUhsK3xzOP,25,Male,6,TRUE,1.365,1,0.623,8,competition,TRUE,"While Trevor is away, he will think that his soup needs more spice.",TRUE
808,TRUE,6/11/19 10:49,R_x3LKJl1FJ13UY9P,45,Female,6,TRUE,2.21,4,0,8,cooperation,TRUE,"While Trevor is away, he will think that his soup needs more spice.",TRUE
708,TRUE,6/11/19 10:50,R_eyyWjPN9qCL2qwp,31,Male,6,TRUE,0,1,0,18,competition,TRUE,"While Trevor is away, he will think that his soup needs more spice.",TRUE
822,TRUE,6/11/19 10:50,R_2f0Xuu8UZgaJ119,21,Male,6,TRUE,4.861,5,1.618,10,competition,TRUE,"While Trevor is away, he will think that his soup needs more spice.",TRUE
811,TRUE,6/11/19 10:53,R_3JC8SnUEgNXXiMQ,34,Female,6,FALSE,5.296,5,0,23,neutral,TRUE,"While Trevor is away, he will think that his soup needs more spice.",FALSE
1472,TRUE,6/11/19 10:54,R_1rNFgXtar6CITN9,31,Male,6,TRUE,1.654,4,0,25,cooperation,TRUE,"While Trevor is away, he will think that his soup needs more spice.",TRUE
1374,TRUE,6/11/19 10:56,R_2PpujFAMLP4n0Lu,58,Male,6,TRUE,3.466,4,2.517,18,neutral,TRUE,"While Trevor is away, he will think that his soup needs more spice.",TRUE
936,TRUE,6/11/19 10:56,R_0oKtUCMX4aZ2WPv,36,Female,6,TRUE,5.35,1,0.834,29,competition,TRUE,"While Trevor is away, he will think that his soup needs more spice.",TRUE
1647,TRUE,6/11/19 10:57,R_30d8QsJfIkiO7F8,22,Female,6,TRUE,1.669,3,0,7,cooperation,TRUE,"While Trevor is away, he will think that his soup needs more spice.",TRUE
1250,TRUE,6/11/19 11:04,R_YR2Kh4aQNWGzOBr,56,Male,6,TRUE,6.431,1,2.196,3,competition,TRUE,"While Trevor is away, he will think that his soup needs more spice.",TRUE
698,TRUE,6/11/19 11:08,R_e52J1yxiPEYzG5r,38,Female,6,TRUE,1.256,6,0,12,cooperation,TRUE,"While Trevor is away, he will think that his soup needs more spice.",TRUE
766,TRUE,6/11/19 11:10,R_RJFMoJKmwY9AKMp,33,Male,6,TRUE,2.863,4,0,25,cooperation,TRUE,"While Trevor is away, he will think that his soup needs more spice.",TRUE
404,TRUE,6/11/19 11:11,R_2VKNQmHBKv3OwAC,30,Female,6,TRUE,1.133,2,0.394,5,cooperation,TRUE,"While Trevor is away, he will think that his soup needs more spice.",TRUE
827,TRUE,6/11/19 11:13,R_WlKmaf9xWFq8VGh,33,Male,6,TRUE,2.039,3,1.491,21,neutral,TRUE,"While Trevor is away, he will think that his soup needs more spice.",TRUE
2485,TRUE,6/11/19 11:14,R_3k54gz7YctGkmcr,40,Female,6,TRUE,2.578,4,0.821,17,neutral,TRUE,"While Trevor is away, he will think that his soup needs more spice.",TRUE
1014,TRUE,6/11/19 11:17,R_3dLGDATDaJjUZFG,43,Female,6,TRUE,36.788,3,3.484,19,neutral,TRUE,"While Trevor is away, he will think that his soup needs more spice.",TRUE
1526,TRUE,6/11/19 11:21,R_1rxEVsAJQmRUEtw,34,Female,6,TRUE,2.488,1,1.385,16,competition,TRUE,"While Trevor is away, he will think that his soup needs more spice.",TRUE
2562,TRUE,6/11/19 11:24,R_vP6DUbkLNf63fNv,29,Male,6,TRUE,1.26,4,0.622,22,cooperation,TRUE,"While Trevor is away, he will think that his soup needs more spice.",TRUE
726,TRUE,6/11/19 11:24,R_2rwv5g0HvjCMINH,31,Female,6,TRUE,1.055,4,0.447,24,cooperation,TRUE,"While Trevor is away, he will think that his soup needs more spice.",TRUE
1294,TRUE,6/11/19 11:26,R_2VI1XbZTJLYiBsC,52,Female,6,TRUE,8.187,1,5.343,30,competition,TRUE,"While Trevor is away, he will think that his soup needs more spice.",TRUE
1357,TRUE,6/11/19 11:27,R_3sgCUVQuqNCS49z,28,Male,6,FALSE,0.93,5,0,4,competition,TRUE,"While Trevor is away, he will think that his soup needs more spice.",FALSE
1092,TRUE,6/11/19 11:28,R_sTeABaS570NXdzX,32,Male,6,TRUE,2.607,1,0.906,14,competition,TRUE,"While Trevor is away, he will think that his soup needs more spice.",TRUE
756,TRUE,6/11/19 11:32,R_1JOwHmzDAvkXI0A,33,Male,6,FALSE,3.048,4,0,10,neutral,TRUE,"While Trevor is away, he will think that his soup needs more spice.",FALSE
443,TRUE,6/11/19 11:34,R_31RgK3UZ74hAawa,25,Male,6,TRUE,1.434,3,0.841,14,competition,TRUE,"While Trevor is away, he will think that his soup needs more spice.",TRUE
1093,TRUE,6/11/19 11:35,R_1lxvJfgZkNZLDrv,47,Female,6,FALSE,4.302,3,3.691,16,cooperation,TRUE,"While Trevor is away, he will think that his soup needs more spice.",FALSE
642,TRUE,6/11/19 11:38,R_2YzzmFn7hxPlU3P,31,Female,6,FALSE,0,4,0.42,26,competition,TRUE,"While Trevor is away, he will think that his soup needs more spice.",FALSE
1111,TRUE,6/11/19 11:42,R_2dQgtgvLUN4VOnC,19,Female,6,FALSE,1.452,1,1.043,14,competition,TRUE,"While Trevor is away, he will think that his soup needs more spice.",FALSE
1638,TRUE,6/11/19 11:43,R_3MAlInCEGkDn9q6,44,Male,6,TRUE,2.435,6,0,3,cooperation,TRUE,"While Trevor is away, he will think that his soup needs more spice.",TRUE
643,TRUE,6/11/19 11:48,R_tXndXrczjfmXjpv,44,Male,6,TRUE,2.843,2,0.749,31,neutral,TRUE,"While Trevor is away, he will think that his soup needs more spice.",TRUE
609,TRUE,6/11/19 11:59,R_ZwU8GWTWZK6EAxP,37,Female,6,TRUE,2.137,2,0,14,neutral,TRUE,"While Trevor is away, he will think that his soup needs more spice.",TRUE
1211,TRUE,6/11/19 11:59,R_2BtDYM5U0ZrGCUB,45,Female,6,TRUE,8.175,1,0,14,competition,TRUE,"While Trevor is away, he will think that his soup needs more spice.",TRUE
1037,TRUE,6/11/19 12:05,R_2YyA7VHI4VbWKr3,33,Male,6,TRUE,1.283,4,0,31,neutral,TRUE,"While Trevor is away, he will think that his soup needs more spice.",TRUE
1552,TRUE,6/11/19 12:41,R_1MM3vx8EaIJeH6y,33,Male,6,TRUE,2.574,1,1.509,10,competition,TRUE,"While Trevor is away, he will think that his soup needs more spice.",TRUE
793,TRUE,6/11/19 12:49,R_yvSkxw8Y8PIpXbP,58,Female,6,TRUE,2.749,1,1.114,11,competition,TRUE,"While Trevor is away, he will think that his soup needs more spice.",TRUE
1000,TRUE,6/11/19 13:37,R_25YBNmGFBPU4uAS,21,Male,6,TRUE,2.511,4,0,25,neutral,TRUE,"While Trevor is away, he will think that his soup needs more spice.",TRUE
296,TRUE,6/11/19 10:03,R_3nlt53Yxgvz7sUa,35,Male,7,FALSE,3.259,5,0.689,1,neutral,FALSE,"While Paula is in class, she will think that the locker is locked.",TRUE
655,TRUE,6/11/19 10:10,R_ZLis8sRowpk9PvX,41,Female,7,FALSE,1.654,7,2.166,12,cooperation,FALSE,"While Paula is in class, she will think that the locker is locked.",TRUE
748,TRUE,6/11/19 10:10,R_5aKNWSi3ewXI0Br,23,Male,7,TRUE,1.979,1,0.62,31,competition,FALSE,"While Paula is in class, she will think that the locker is locked.",FALSE
528,TRUE,6/11/19 10:11,R_73NCcJkqe8nX3pL,35,Male,7,FALSE,2.543,4,0.548,26,neutral,FALSE,"While Paula is in class, she will think that the locker is locked.",TRUE
755,TRUE,6/11/19 10:11,R_1itjXKj7aJ26xlY,50,Male,7,TRUE,1.7,6,1.287,7,cooperation,FALSE,"While Paula is in class, she will think that the locker is locked.",FALSE
677,TRUE,6/11/19 10:11,R_2xEQOcbagTC5K31,27,Female,7,FALSE,2.93,7,0.535,26,cooperation,FALSE,"While Paula is in class, she will think that the locker is locked.",TRUE
772,TRUE,6/11/19 10:11,R_sjyOcu2i5Cs3KPD,40,Male,7,FALSE,3.455,6,1.486,9,neutral,FALSE,"While Paula is in class, she will think that the locker is locked.",TRUE
735,TRUE,6/11/19 10:11,R_2DMiqHkr8WXICHg,32,Female,7,FALSE,1.457,4,0,27,neutral,FALSE,"While Paula is in class, she will think that the locker is locked.",TRUE
500,TRUE,6/11/19 10:12,R_2tyaL54hsNnBGiE,35,Male,7,FALSE,1.68,5,1.134,12,competition,FALSE,"While Paula is in class, she will think that the locker is locked.",TRUE
818,TRUE,6/11/19 10:12,R_Qh6cdqFytPFsV3P,28,Female,7,TRUE,4.543,3,8.609,24,neutral,FALSE,"While Paula is in class, she will think that the locker is locked.",FALSE
737,TRUE,6/11/19 10:12,R_3k7XpgJaA2P1mMl,29,Male,7,FALSE,2.754,5,0,17,cooperation,FALSE,"While Paula is in class, she will think that the locker is locked.",TRUE
831,TRUE,6/11/19 10:12,R_3n7UxfN5J3GD59s,55,Male,7,FALSE,2.763,7,2.463,22,neutral,FALSE,"While Paula is in class, she will think that the locker is locked.",TRUE
819,TRUE,6/11/19 10:12,R_2dHltfvDoR6dDRT,31,Male,7,FALSE,1.891,6,2.319,1,cooperation,FALSE,"While Paula is in class, she will think that the locker is locked.",TRUE
764,TRUE,6/11/19 10:13,R_3JJylNort6ur6sS,21,Male,7,FALSE,2.127,5,0,12,neutral,FALSE,"While Paula is in class, she will think that the locker is locked.",TRUE
898,TRUE,6/11/19 10:13,R_2BsoiDyVxkWuZ8o,47,Male,7,FALSE,2.977,1,1.234,27,competition,FALSE,"While Paula is in class, she will think that the locker is locked.",TRUE
820,TRUE,6/11/19 10:14,R_21ooKFhcfIWZ74P,35,Male,7,FALSE,2.454,5,1.874,5,cooperation,FALSE,"While Paula is in class, she will think that the locker is locked.",TRUE
931,TRUE,6/11/19 10:14,R_UyANc1QsKeLFV4t,28,Female,7,FALSE,1.391,4,1.092,18,neutral,FALSE,"While Paula is in class, she will think that the locker is locked.",TRUE
530,TRUE,6/11/19 10:15,R_1d148ARgkkhTuhj,31,Male,7,TRUE,5.547,7,0.796,3,cooperation,FALSE,"While Paula is in class, she will think that the locker is locked.",FALSE
997,TRUE,6/11/19 10:15,R_2z8inlLrpl77PQ7,30,Male,7,FALSE,4.8,5,6.354,2,neutral,FALSE,"While Paula is in class, she will think that the locker is locked.",TRUE
956,TRUE,6/11/19 10:16,R_CdF5GMFiGS5KcHD,37,Male,7,FALSE,7.487,1,0.238,17,competition,FALSE,"While Paula is in class, she will think that the locker is locked.",TRUE
1075,TRUE,6/11/19 10:16,R_2trOvSxSAJkEHCg,29,Male,7,FALSE,1.938,5,0,21,neutral,FALSE,"While Paula is in class, she will think that the locker is locked.",TRUE
959,TRUE,6/11/19 10:16,R_1myjjiv96Mndvet,41,Female,7,FALSE,2.173,7,0,22,cooperation,FALSE,"While Paula is in class, she will think that the locker is locked.",TRUE
1162,TRUE,6/11/19 10:18,R_1omSlECSpgsqhsR,28,Female,7,FALSE,3.132,6,2.018,11,cooperation,FALSE,"While Paula is in class, she will think that the locker is locked.",TRUE
1047,TRUE,6/11/19 10:18,R_2YtVD8wLevQUfn3,58,Female,7,TRUE,0,5,0,9,cooperation,FALSE,"While Paula is in class, she will think that the locker is locked.",FALSE
712,TRUE,6/11/19 10:18,R_pKjvBYAYxQE8WXL,30,Male,7,FALSE,1.477,2,0,20,competition,FALSE,"While Paula is in class, she will think that the locker is locked.",TRUE
594,TRUE,6/11/19 10:21,R_8dj2lxJavrkg157,26,Male,7,FALSE,0.197,4,0.228,26,cooperation,FALSE,"While Paula is in class, she will think that the locker is locked.",TRUE
1438,TRUE,6/11/19 10:22,R_1IFpRvvaYecmO6u,39,Female,7,FALSE,1.602,5,0,26,cooperation,FALSE,"While Paula is in class, she will think that the locker is locked.",TRUE
946,TRUE,6/11/19 10:24,R_2aOYOkpwV5YFXyw,56,Female,7,FALSE,4.229,5,1.472,15,neutral,FALSE,"While Paula is in class, she will think that the locker is locked.",TRUE
1583,TRUE,6/11/19 10:25,R_1d6q1wNaxE5Lxx8,55,Male,7,FALSE,1.686,5,0,17,neutral,FALSE,"While Paula is in class, she will think that the locker is locked.",TRUE
